PacketCounter,SampleTimeFine,Acc_X,Acc_Y,Acc_Z,Gyr_X,Gyr_Y,Gyr_Z
03774,8613239,-0.164166,-0.204946,9.781647,-0.000185,-0.000834,0.003483
03775,8613264,-0.100953,-0.184980,9.724069,0.002643,0.002357,0.005672
03776,8613289,-0.148746,-0.126332,9.823633,0.004410,0.001659,-0.001150
03777,8613314,-0.138149,-0.129720,9.830261,-0.001681,-0.003158,0.002337
03778,8613339,-0.110340,-0.170681,9.789944,0.004102,0.001901,0.003096
03779,8613364,-0.144358,-0.171995,9.808850,-0.000034,-0.000362,0.000491
03780,8613389,-0.090104,-0.164756,9.823920,0.005037,-0.001605,0.005203
03781,8613414,-0.095941,-0.122075,9.851337,0.003459,0.000023,0.003972
03782,8613439,-0.128952,-0.130556,9.845733,0.000141,0.001163,0.003590
03783,8613464,-0.189146,-0.172856,9.833766,0.003595,-0.001283,0.002477
03784,8613489,-0.116437,-0.120291,9.772087,0.001224,-0.002572,0.003671
03785,8613514,-0.077304,-0.140770,9.737873,-0.002623,0.000649,0.004309
03786,8613539,-0.146499,-0.185365,9.818745,0.002285,-0.000869,0.006866
03787,8613564,-0.100355,-0.161984,9.822346,0.003689,-0.003517,0.002360
03788,8613589,-0.121963,-0.146915,9.801412,0.001829,-0.002959,0.000428
03789,8613614,-0.151696,-0.142756,9.818317,0.002571,-0.002873,0.006818
03790,8613639,-0.109217,-0.139229,9.803510,0.002513,-0.002199,0.003845
03791,8613664,-0.121647,-0.166226,9.793116,0.001871,-0.003435,0.001823
03792,8613689,-0.105175,-0.130355,9.811926,-0.000942,-0.001273,0.000199
03793,8613714,-0.091981,-0.153602,9.835577,-0.001104,-0.000159,0.003593
03794,8613739,-0.105410,-0.160765,9.811235,-0.000006,-0.001591,0.003418
03795,8613764,-0.146668,-0.135470,9.810901,0.001814,-0.000626,0.004273
03796,8613789,-0.115098,-0.149860,9.812069,0.000768,-0.000916,0.003941
03797,8613814,-0.088966,-0.169332,9.818792,0.001330,0.002842,0.004866
03798,8613839,-0.109449,-0.154989,9.802890,0.002529,0.003121,0.001342
03799,8613864,-0.081295,-0.150311,9.811306,0.000928,0.001407,0.003154
03800,8613889,-0.154617,-0.148802,9.835459,0.007319,0.002071,0.002704
03801,8613914,-0.135014,-0.149395,9.805704,0.003699,-0.000268,0.002842
03802,8613939,-0.127193,-0.129830,9.808325,0.000953,0.003537,0.005095
03803,8613964,-0.142963,-0.167154,9.819127,0.003942,0.000495,0.005487
03804,8613989,-0.098136,-0.153521,9.809995,0.001659,-0.001757,0.003596
03805,8614014,-0.147143,-0.129424,9.802413,0.001072,0.001205,0.001899
03806,8614039,-0.115385,-0.168235,9.795380,-0.000677,-0.004792,0.007277
03807,8614064,-0.111968,-0.140721,9.824300,-0.000553,-0.001454,0.003652
03808,8614089,-0.132948,-0.120399,9.807969,0.000147,-0.003473,0.002059
03809,8614114,-0.115856,-0.121152,9.819031,-0.000921,-0.005205,0.001814
03810,8614139,-0.155862,-0.157601,9.809328,-0.000606,-0.003348,0.004367
03811,8614164,-0.125792,-0.175839,9.804154,0.001495,-0.001800,0.001696
03812,8614189,-0.086643,-0.166543,9.809113,0.001342,0.002076,-0.000550
03813,8614214,-0.129288,-0.162299,9.840846,0.001321,-0.000586,0.002652
03814,8614239,-0.139886,-0.134986,9.833026,0.000503,0.000443,0.003474
03815,8614264,-0.169931,-0.149304,9.843779,0.001464,-0.001103,-0.000761
03816,8613587,NaN,NaN,NaN,NaN,NaN,NaN
03817,8614289,-0.106861,-0.118645,9.840084,0.003231,-0.005704,0.003741
03818,8614314,-0.125403,-0.121276,9.810042,-0.001393,0.001491,0.005788
03819,8614339,-0.127670,-0.173849,9.808159,0.000367,-0.002265,0.005821
03820,8614364,-0.096079,-0.157191,9.814811,-0.000183,0.001580,0.003280
03821,8614389,-0.116392,-0.147794,9.797597,0.000051,0.001519,0.004274
03822,8614414,-0.111603,-0.170087,9.783792,0.001932,0.003781,0.005444
03823,8614439,-0.120477,-0.142957,9.793901,0.001810,0.002288,0.001796
03824,8614464,-0.120001,-0.133744,9.766650,0.000647,0.000381,0.002811
03825,8614489,-0.132906,-0.160040,9.811450,0.002833,-0.000937,-0.002570
03826,8614514,-0.121392,-0.133519,9.818387,0.003513,0.003044,-0.000563
03827,8614539,-0.109039,-0.132327,9.813309,-0.000390,0.000773,0.001984
03828,8614564,-0.133362,-0.161012,9.785843,0.003216,0.003151,0.000402
03829,8614589,-0.120961,-0.153446,9.808946,-0.000004,-0.001082,0.001930
03830,8614614,-0.113772,-0.161238,9.802223,0.002310,-0.002095,0.002960
03831,8614639,-0.113741,-0.166688,9.797502,0.001142,0.001223,0.002233
03832,8614664,-0.091199,-0.144667,9.827304,0.004318,0.006092,0.002738
03833,8614689,-0.115246,-0.134865,9.809399,0.002677,0.001491,-0.000918
03834,8614714,-0.134584,-0.150047,9.801627,0.003023,-0.000279,0.003131
03835,8614739,-0.190476,-0.152628,9.889365,0.002492,0.000264,0.000819
03836,8614764,-0.134158,-0.177798,9.833074,-0.000764,-0.001980,0.002994
03837,8614789,-0.085578,-0.146174,9.735727,-0.000003,0.000735,0.004604
03838,8614814,-0.141476,-0.150709,9.814596,0.001480,-0.000185,0.004048
03839,8614839,-0.094646,-0.126607,9.822679,0.003345,0.001451,0.000621
03840,8614864,-0.065012,-0.106197,9.764003,-0.002378,0.005477,0.002905
03841,8614889,-0.140547,-0.135643,9.818124,-0.000507,0.003856,-0.001557
03842,8614914,-0.131606,-0.181664,9.846235,0.000811,-0.000143,0.003194
03843,8614939,-0.119145,-0.182320,9.799314,0.001811,-0.001332,-0.000794
03844,8614964,-0.133152,-0.127480,9.793877,0.002103,0.003462,0.000880
03845,8614989,-0.140808,-0.154036,9.856820,0.000470,-0.000207,0.004224
03846,8615014,-0.110250,-0.168987,9.838034,0.004158,0.000406,0.002164
03847,8615039,-0.084396,-0.115988,9.790898,0.002179,-0.000413,0.002850
03848,8615064,-0.137370,-0.149397,9.791160,0.001635,-0.002547,0.000306
03849,8615089,-0.136162,-0.166252,9.835101,0.001643,-0.001922,0.002972
03850,8615114,-0.111540,-0.135764,9.825635,0.001248,0.002549,0.001437
03851,8615139,-0.202235,-0.146455,9.845638,-0.001575,-0.001378,0.005557
03852,8615164,-0.142167,-0.154849,9.856941,0.004119,-0.004101,0.005632
03853,8615189,-0.060662,-0.152672,9.773588,0.000916,0.000598,0.002780
03854,8615214,-0.121789,-0.164861,9.770871,0.004361,0.000314,0.002404
03855,8615239,-0.110775,-0.169910,9.812236,0.000878,0.002436,0.000019
03856,8615264,-0.110247,-0.129332,9.815454,0.000801,0.004085,0.000878
03857,8615289,-0.114446,-0.123579,9.820534,0.003280,-0.001623,0.006270
03858,8615314,-0.154664,-0.150171,9.821796,0.000689,0.002018,0.002780
03859,8615339,-0.131723,-0.177308,9.802794,0.000284,0.001626,0.001431
03860,8615364,-0.132954,-0.150804,9.809471,-0.000380,-0.004917,0.003486
03861,8615389,-0.103279,-0.149215,9.838843,-0.003006,-0.000325,0.001169
03862,8615414,-0.116960,-0.145742,9.826518,0.006036,-0.000736,0.002528
03863,8615439,-0.144573,-0.137934,9.812761,0.001203,-0.000353,0.000700
03864,8615464,-0.098713,-0.150472,9.791995,0.001412,-0.001417,0.004973
03865,8615489,-0.135047,-0.148403,9.815002,-0.001016,-0.001496,0.005377
03866,8615514,-0.149626,-0.162404,9.797145,0.004416,0.001431,0.003534
03867,8615539,-0.116929,-0.153787,9.798050,0.001340,0.002585,0.002942
03868,8615564,-0.124077,-0.140491,9.827948,0.000735,-0.001675,0.002705
03869,8615589,-0.129772,-0.138759,9.823442,0.001969,-0.001940,0.002073
03870,8615614,-0.121688,-0.131058,9.819770,0.001984,0.003742,0.003026
03871,8615639,-0.148221,-0.150811,9.866071,-0.000937,-0.002271,0.003339
03872,8615664,-0.134484,-0.147535,9.849262,-0.002076,-0.002567,0.000001
03873,8615689,-0.126607,-0.150995,9.790540,-0.000371,-0.001425,0.002979
03874,8615714,-0.103307,-0.163392,9.798503,-0.000308,0.000005,0.003109
03875,8615739,-0.123824,-0.153685,9.800673,-0.000077,-0.002836,0.003024
03876,8615764,-0.091830,-0.180308,9.770441,0.000637,-0.000714,-0.001311
03877,8615789,-0.096056,-0.146180,9.791685,0.003388,0.001658,0.003373
03878,8615814,-0.113805,-0.132401,9.804536,0.003261,-0.003244,0.001132
03879,8615839,-0.116894,-0.113651,9.876872,0.000200,-0.004132,0.004392
03880,8615864,-0.104196,-0.125330,9.797645,0.000498,-0.001456,0.004128
03881,8615889,-0.140977,-0.166825,9.810495,-0.000317,-0.000092,0.003731
03882,8615914,-0.096326,-0.163081,9.773326,0.001734,-0.001626,0.003109
03883,8615939,-0.111165,-0.181947,9.758425,0.001162,0.003073,0.002512
03884,8615964,-0.153901,-0.157969,9.824969,0.008301,0.000127,0.003568
03885,8615989,-0.112582,-0.167914,9.789302,0.008091,-0.000042,0.005106
03886,8616014,-0.116851,-0.134363,9.795617,0.000723,0.005963,0.003194
03887,8616039,-0.137298,-0.132895,9.823275,0.001844,-0.000612,0.003108
03888,8616064,-0.102664,-0.145675,9.794188,0.001777,0.000045,0.003836
03889,8616089,-0.133428,-0.176590,9.860446,0.006323,-0.005138,0.003498
03890,8616114,-0.142848,-0.105398,9.888793,0.002462,-0.002985,0.003920
03891,8616139,-0.073702,-0.135515,9.786439,-0.001837,-0.001451,0.006854
03892,8616164,-0.114330,-0.182730,9.802030,-0.002412,0.006480,0.001364
03893,8616189,-0.129853,-0.166665,9.771395,0.001056,0.000798,0.002634
03894,8616214,-0.065549,-0.154183,9.771872,0.004046,0.002522,0.004572
03895,8616239,-0.137957,-0.146818,9.834266,0.005815,0.002552,0.002887
03896,8616264,-0.126163,-0.124416,9.826446,0.001148,-0.002663,0.003367
03897,8616289,-0.112033,-0.137022,9.826398,0.003662,0.001933,0.002278
03898,8616314,-0.147713,-0.146412,9.818101,0.003912,0.001030,0.002611
03899,8616339,-0.102842,-0.178820,9.825778,-0.000483,0.002880,0.002787
03900,8616364,-0.093970,-0.176094,9.817433,0.002036,0.002653,0.003599
03901,8616389,-0.105782,-0.139681,9.832121,0.002588,-0.002378,0.006428
03902,8616414,-0.147866,-0.141040,9.818268,-0.001365,-0.000210,0.006253
03903,8616439,-0.149259,-0.150107,9.762693,0.002020,-0.001276,0.003766
03904,8616464,-0.122827,-0.115147,9.823871,0.002643,-0.000609,0.005186
03905,8616489,-0.127445,-0.133631,9.833837,0.000157,-0.003095,0.002091
03906,8616514,-0.127480,-0.156669,9.829928,0.003501,-0.002222,0.004647
03907,8616539,-0.128002,-0.154079,9.825922,0.002786,-0.000450,0.001780
03908,8616564,-0.129325,-0.152969,9.797692,-0.000019,0.000451,0.005802
03909,8616589,-0.073311,-0.161707,9.811449,-0.000970,-0.000292,0.002017
03910,8616614,-0.166928,-0.171148,9.822774,0.001017,-0.001024,0.001665
03911,8616639,-0.112329,-0.142659,9.812212,0.000801,0.000777,0.004276
03912,8616664,-0.116119,-0.124356,9.800672,0.000245,0.004562,0.003570
03913,8616689,-0.162245,-0.171448,9.837270,-0.000139,-0.001898,0.003197
03914,8616714,-0.137655,-0.129429,9.814644,-0.001284,-0.002621,0.000482
03915,8616739,-0.106595,-0.138827,9.792543,0.000267,-0.004135,0.002823
03916,8616764,-0.112061,-0.188192,9.805632,-0.000706,-0.001591,0.000354
03917,8616789,-0.143716,-0.154334,9.832645,0.001458,-0.002210,0.003891
03918,8616814,-0.097235,-0.116594,9.754706,-0.000609,-0.003277,0.003288
03919,8616087,NaN,NaN,NaN,NaN,NaN,NaN
03920,8616839,-0.203562,-0.193873,9.873295,-0.001320,-0.001992,0.004012
03921,8616864,-0.112866,-0.225585,9.801008,0.004413,-0.004070,0.003468
03922,8616889,-0.074561,-0.124315,9.791304,0.003623,-0.003242,0.000005
03923,8616914,-0.177017,-0.121338,9.923863,-0.004451,-0.002685,0.005513
03924,8616939,-0.159843,-0.088483,9.890583,0.001416,-0.011034,0.003768
03925,8616964,-0.013189,-0.102649,9.704971,-0.002779,-0.003560,0.003327
03926,8616989,-0.115656,-0.245030,9.774374,-0.004525,-0.002006,-0.000010
03927,8617014,-0.141632,-0.197402,9.799124,0.000625,-0.006968,0.003644
03928,8617039,-0.257297,-0.010132,10.030487,-0.001882,-0.007960,0.000847
03929,8617064,-0.107710,0.029152,9.896852,-0.010155,-0.008288,0.001576
03930,8617089,0.097469,-0.386109,9.527845,-0.009198,-0.006358,0.001252
03931,8617114,-0.227763,-0.386152,9.801321,0.006986,-0.003877,0.003477
03932,8617139,-0.201880,0.057091,9.960797,0.003005,-0.012492,0.001595
03933,8617164,0.039205,0.032133,9.716034,-0.006340,-0.000745,0.003255
03934,8617189,-0.260167,-0.240369,9.828494,-0.005549,0.000269,0.004854
03935,8617214,-0.098736,-0.263132,9.761287,0.000859,-0.007282,0.002236
03936,8617239,-0.016840,-0.238564,9.769273,-0.000206,-0.009203,0.003601
03937,8617264,-0.067696,-0.079710,9.814191,-0.000568,-0.003164,0.005721
03938,8617289,-0.215764,0.067829,9.933330,-0.002100,-0.004198,0.004228
03939,8617314,0.082772,-0.252610,9.567639,-0.012352,0.002418,0.005650
03940,8617339,-0.000542,-0.528400,9.618095,0.004592,0.009289,0.002474
03941,8617364,-0.132795,-0.080512,9.805703,0.011834,0.009385,0.000630
03942,8617389,-0.270616,0.029450,10.037731,0.002251,0.002804,0.002360
03943,8617414,-0.330251,0.200992,10.156777,-0.001544,-0.004244,0.001907
03944,8617439,-0.029929,-0.007968,9.704971,-0.018087,-0.005320,0.001379
03945,8617464,-0.060686,-0.495589,9.643287,-0.008924,-0.003566,0.005806
03946,8617489,-0.039057,-0.431834,9.782006,0.003047,-0.003603,0.001394
03947,8617514,-0.060028,-0.304291,9.968450,0.005912,0.003322,0.001367
03948,8617539,-0.262738,-0.001217,10.073640,0.001723,-0.005613,0.002574
03949,8617564,-0.216698,0.098218,9.728554,-0.014615,-0.005952,0.001419
03950,8617589,-0.268836,-0.086718,9.714319,-0.012381,-0.010279,0.007076
03951,8617614,-0.198176,-0.186938,9.766651,-0.007433,-0.011599,0.004349
03952,8617639,0.068840,-0.237601,9.698771,-0.003369,-0.006673,0.001725
03953,8617664,0.052757,-0.263498,9.851717,-0.001737,-0.001629,0.002673
03954,8617689,0.060972,-0.261364,9.922313,-0.000755,-0.004603,0.004389
03955,8617714,0.147979,-0.237333,9.744191,-0.000905,-0.001362,0.001519
03956,8617739,-0.147049,-0.123680,9.693956,0.000944,0.001354,-0.000229
03957,8617764,-0.417965,0.059790,9.749388,-0.000565,0.001397,0.002705
03958,8617789,-0.725518,0.204871,10.008129,-0.002460,-0.008596,0.005367
03959,8617814,-0.228925,-0.019636,9.902458,-0.008950,-0.015798,0.005689
03960,8617839,0.293139,-0.440076,9.749782,-0.015816,-0.010216,0.002865
03961,8617864,0.068310,-0.430266,9.825989,-0.007120,-0.000219,-0.000790
03962,8617889,-0.236628,-0.159822,9.795500,-0.002681,-0.004014,-0.002550
03963,8617914,-0.079949,0.052918,9.513474,0.001077,-0.001332,0.005736
03964,8617939,0.051122,-0.074879,9.559822,-0.003272,0.005486,0.005213
03965,8617964,-0.096312,-0.328967,10.024021,-0.003603,0.002936,0.004909
03966,8617989,-0.099669,-0.332139,10.099483,0.000141,-0.001219,0.004948
03967,8618014,0.000648,-0.204429,9.717012,0.003179,0.003486,0.003739
03968,8618039,-0.193174,0.010038,9.753107,-0.002027,0.004526,0.005694
03969,8618064,-0.123519,-0.191781,9.887884,-0.011382,-0.002520,0.005146
03970,8618089,-0.167020,-0.219739,9.994052,-0.004883,0.000589,0.002489
03971,8618114,-0.320879,0.072349,9.865859,-0.010748,-0.004520,0.005112
03972,8618139,-0.159944,0.036871,9.779646,-0.016671,-0.006759,0.002676
03973,8618164,-0.202902,-0.216930,9.787939,-0.019006,-0.011151,0.005061
03974,8618189,-0.070339,-0.333432,9.761569,-0.010043,-0.009349,0.001244
03975,8618214,-0.032477,-0.197263,9.773063,-0.005506,-0.007482,0.000758
03976,8618239,0.002479,-0.199197,9.827754,-0.009581,-0.007750,0.002299
03977,8618264,-0.131347,-0.172940,9.947371,-0.007021,-0.005634,0.003519
03978,8618289,-0.173723,-0.114285,9.922219,-0.010540,-0.010687,0.003297
03979,8618314,-0.147889,-0.118604,9.741640,-0.011173,-0.008126,0.010055
03980,8618339,-0.190955,-0.086707,9.696008,-0.013316,-0.009359,0.001557
03981,8618364,-0.160349,-0.215425,9.860752,-0.012767,-0.004902,0.004836
03982,8618389,-0.094271,-0.222876,9.963343,-0.011662,-0.005698,-0.000763
03983,8618414,-0.027053,-0.196905,9.763858,-0.011314,-0.002697,0.006231
03984,8618439,-0.080779,-0.084574,9.654379,-0.004576,-0.001778,0.002714
03985,8618464,-0.131925,-0.159630,9.774803,-0.006551,-0.003247,0.000717
03986,8618489,0.019398,-0.226568,9.856652,-0.003743,0.002677,-0.000674
03987,8618514,0.002610,-0.185993,10.063837,-0.007780,0.012354,0.000454
03988,8618539,-0.094901,-0.103461,9.935233,-0.010499,0.014230,0.003465
03989,8618564,-0.197171,-0.066085,9.806820,-0.019185,0.007669,0.004754
03990,8618589,-0.089844,-0.200286,9.734433,-0.020826,0.012345,0.003351
03991,8618614,-0.132984,-0.165085,9.756248,-0.015998,0.020979,0.004961
03992,8618639,-0.238111,-0.103344,9.799619,-0.011052,0.009873,0.008313
03993,8618664,-0.094424,-0.206668,9.802600,-0.012295,0.006605,0.004102
03994,8618689,0.016776,-0.179666,9.788369,-0.007251,0.014243,0.003842
03995,8618714,-0.140982,-0.087588,9.771510,-0.013171,0.015990,0.005246
03996,8618739,-0.249608,-0.077499,9.897896,-0.012702,0.006343,0.004388
03997,8618764,-0.035094,-0.152106,9.888788,-0.020820,0.005601,0.005438
03998,8618789,-0.103874,-0.118586,9.907361,-0.020933,0.007255,0.005243
03999,8618814,-0.126233,-0.202801,9.803598,-0.021644,0.010782,0.004984
04000,8618839,-0.127723,-0.223062,9.781116,-0.019380,0.007837,0.004803
04001,8618864,-0.079680,-0.190721,9.734077,-0.018463,0.003900,0.003742
04002,8618889,-0.035841,-0.160945,9.770890,-0.016643,0.006355,0.003815
04003,8618914,-0.134244,-0.178074,9.852167,-0.015466,0.004923,0.005362
04004,8618939,-0.115228,-0.172462,9.872933,-0.012793,0.009611,0.003996
04005,8618964,-0.117936,-0.124374,9.871050,-0.014831,0.008770,0.005835
04006,8618989,-0.189418,-0.085043,9.826751,-0.019391,0.009231,0.004131
04007,8619014,-0.193827,-0.106150,9.846159,-0.016031,0.005215,0.003574
04008,8619039,-0.193995,-0.195271,9.867092,-0.019862,-0.002468,0.002580
04009,8619064,-0.163037,-0.166955,9.859106,-0.016719,-0.003460,0.006776
04010,8619089,-0.067700,-0.307518,9.864134,-0.015970,-0.004841,0.003887
04011,8619114,-0.219705,-0.649450,10.072112,-0.003631,-0.011258,0.000592
04012,8619139,-0.229562,-0.667418,10.377403,0.017426,-0.019203,-0.001207
04013,8619164,-0.100547,-0.366306,10.473008,0.034591,-0.026897,0.001324
04014,8619189,-0.002253,-0.039828,10.400821,0.030256,-0.022903,0.000869
04015,8619214,-0.152752,-0.184192,10.367168,0.032047,-0.027904,0.003599
04016,8619239,-0.186799,-0.211249,10.283273,0.043707,-0.026159,0.000540
04017,8619264,-0.214196,-0.156568,10.315125,0.051812,-0.024077,0.004672
04018,8619289,-0.186717,-0.152516,10.303752,0.055466,-0.025068,0.005024
04019,8618587,NaN,NaN,NaN,NaN,NaN,NaN
04020,8619314,-0.361105,-0.377878,10.453363,0.061163,-0.031498,0.005899
04021,8619339,-0.065237,-0.574355,10.292852,0.079248,-0.031430,0.006897
04022,8619364,-0.079648,-0.303593,10.305132,0.091403,-0.026572,0.002036
04023,8619389,-0.266468,-0.119464,10.259344,0.087751,-0.036380,0.006875
04024,8619414,-0.056076,-0.277551,10.071073,0.090245,-0.037992,0.002653
04025,8619439,-0.061372,-0.325589,10.098882,0.099739,-0.032081,0.005639
04026,8619464,-0.304473,-0.290329,10.310107,0.101126,-0.043529,0.003890
04027,8619489,-0.104949,-0.289492,10.457657,0.105456,-0.054978,0.000595
04028,8619514,-0.219666,-0.158498,10.502160,0.107323,-0.053681,0.002982
04029,8619539,-0.202179,-0.159892,10.329165,0.115647,-0.055397,0.002494
04030,8619564,-0.207644,-0.202914,10.206126,0.119857,-0.061359,0.005021
04031,8619589,-0.275091,-0.101216,10.180275,0.119320,-0.070886,0.001452
04032,8619614,-0.061526,-0.263302,10.206745,0.120168,-0.071935,0.005563
04033,8619639,-0.010926,-0.471185,10.083660,0.134443,-0.060274,0.004692
04034,8619664,-0.211124,-0.402890,10.277387,0.151301,-0.057413,0.005759
04035,8619689,-0.160338,-0.324994,10.632930,0.164572,-0.070001,0.003953
04036,8619714,-0.175361,-0.236844,10.909314,0.167822,-0.073180,0.003742
04037,8619739,-0.329536,-0.249361,10.838119,0.165262,-0.085112,0.007918
04038,8619764,-0.227031,-0.479424,10.462179,0.175878,-0.097822,0.001138
04039,8619789,-0.100895,-0.461476,10.480146,0.193461,-0.093198,0.002790
04040,8619814,-0.255148,-0.137876,10.597439,0.201625,-0.097825,0.004166
04041,8619839,-0.221407,-0.069402,10.471128,0.202248,-0.102957,0.003848
04042,8619864,-0.026927,-0.241769,10.415073,0.209615,-0.105579,0.005343
04043,8619889,-0.110702,-0.360298,10.349531,0.219306,-0.104786,0.001699
04044,8619914,-0.195896,-0.334648,10.240871,0.232520,-0.110915,0.002024
04045,8619939,-0.118929,-0.201059,10.176569,0.239759,-0.112137,0.005399
04046,8619964,-0.065508,-0.215860,10.179476,0.243873,-0.111347,0.003543
04047,8619989,-0.040659,-0.287006,10.227561,0.248220,-0.111316,0.003568
04048,8620014,-0.068434,-0.288219,10.066517,0.256190,-0.111125,-0.001724
04049,8620039,-0.098910,-0.156067,10.020298,0.255176,-0.122677,0.002817
04050,8620064,0.335331,-0.308144,9.916869,0.266457,-0.097732,0.001702
04051,8620089,-0.151766,-0.158213,10.000850,0.274777,-0.090514,-0.000621
04052,8620114,-0.036351,-0.229172,9.762086,0.277068,-0.100349,0.002939
04053,8620139,0.186701,-0.281016,9.683099,0.300085,-0.086372,0.001547
04054,8620164,0.041318,0.255101,10.053373,0.289717,-0.072110,0.000887
04055,8620189,-0.421397,-0.075130,9.686738,0.289024,-0.093217,0.001311
04056,8620214,1.232877,0.376491,9.524887,0.249568,-0.083610,-0.008351
04057,8620239,-0.473203,-0.878955,9.538847,0.284415,-0.083749,-0.011957
04058,8620264,0.993594,-0.272045,8.892402,0.297944,-0.036792,-0.013398
04059,8620289,-0.653222,-0.452475,10.951018,0.284202,-0.063832,-0.010134
04060,8620314,-0.124714,0.003863,10.322626,0.317793,-0.053777,0.003921
04061,8620339,-1.145916,0.980348,10.164149,0.278459,-0.092822,0.006235
04062,8620364,-0.143149,-0.058665,9.799662,0.271348,-0.099069,0.000355
04063,8620389,-0.136608,-0.145965,9.940648,0.310322,-0.079268,0.009333
04064,8620414,-0.435791,0.449536,10.394687,0.311407,-0.090583,0.009177
04065,8620439,0.047844,0.431621,10.200531,0.287043,-0.105961,0.001872
04066,8620464,0.228250,0.282271,10.281009,0.271494,-0.104703,0.003376
04067,8620489,0.045666,-0.027494,10.022525,0.271823,-0.105403,0.000703
04068,8620514,-0.149861,-0.443040,10.087791,0.286558,-0.115959,-0.002424
04069,8620539,-0.127847,-0.106898,9.852137,0.298838,-0.127192,-0.001134
04070,8620564,0.117439,0.105928,9.421005,0.293461,-0.135149,-0.000727
04071,8620589,0.181029,0.019020,9.361138,0.278629,-0.124119,-0.001258
04072,8620614,0.035939,-0.122689,9.243454,0.272439,-0.114232,-0.006038
04073,8620639,-0.029201,0.025650,9.511777,0.280415,-0.116763,-0.004612
04074,8620664,0.103436,0.298155,9.658603,0.273462,-0.109661,-0.005814
04075,8620689,-0.112441,0.334082,9.768105,0.266417,-0.107273,-0.004369
04076,8620714,0.082873,0.187856,9.680795,0.264456,-0.106306,-0.003099
04077,8620739,-0.045143,0.151960,9.927300,0.268389,-0.102989,-0.003676
04078,8620764,-0.236984,0.276514,9.913027,0.271062,-0.111994,-0.002009
04079,8620789,-0.013350,0.307399,9.565395,0.271685,-0.125800,-0.000544
04080,8620814,0.140643,0.328807,9.514586,0.262938,-0.114273,-0.001445
04081,8620839,-0.018773,0.262937,9.654202,0.257576,-0.111763,0.002009
04082,8620864,-0.120249,0.214259,9.642262,0.262412,-0.111553,0.000141
04083,8620889,-0.287923,0.461191,9.824576,0.259580,-0.119558,0.002036
04084,8620914,0.050574,0.425732,9.548285,0.250676,-0.126123,0.004760
04085,8620939,0.247986,0.211796,9.234899,0.248633,-0.116193,0.001725
04086,8620964,-0.040310,0.300015,9.362087,0.245569,-0.112475,0.004842
04087,8620989,-0.177861,0.437594,9.466184,0.243823,-0.118637,0.003473
04088,8621014,0.637130,0.437526,9.308758,0.238792,-0.087917,0.011290
04089,8621039,-0.284907,0.851980,9.006686,0.212970,-0.086665,0.004274
04090,8621064,-0.053844,0.184027,8.833941,0.202218,-0.102751,0.004681
04091,8621089,0.305468,0.090692,8.867941,0.210882,-0.101587,0.008015
04092,8621114,0.203103,0.520047,8.803456,0.193747,-0.096622,0.005475
04093,8621139,0.434076,0.477900,8.642258,0.173662,-0.091277,0.003926
04094,8621164,0.572150,0.260742,8.455201,0.158722,-0.066966,0.002006
04095,8621189,0.156145,0.319936,8.467721,0.155585,-0.054571,-0.002828
04096,8621214,0.179073,0.640697,8.582276,0.144074,-0.046118,0.003345
04097,8621239,0.110216,0.633807,8.669821,0.124972,-0.038870,0.003993
04098,8621264,0.016307,0.918116,8.706919,0.110818,-0.030044,0.005018
04099,8621289,0.035072,0.894054,8.667910,0.095452,-0.025582,0.008603
04100,8621314,0.104952,0.788373,8.753917,0.071497,-0.025152,0.011078
04101,8621339,0.314899,0.401631,8.809840,0.051335,-0.027478,0.006088
04102,8621364,0.547054,0.155896,9.030754,0.044359,-0.012742,0.008263
04103,8621389,0.078574,0.154105,9.365718,0.035963,-0.009358,0.006410
04104,8621414,0.119704,0.223562,9.480585,0.029904,-0.017613,0.000074
04105,8621439,0.082952,0.306198,9.622443,0.027505,-0.010286,0.003568
04106,8621464,-0.008259,0.422926,9.589854,0.017510,-0.017044,0.000177
04107,8621489,0.044159,0.390410,9.493487,0.012020,-0.016342,0.001798
04108,8621514,0.154484,0.342051,9.618348,0.011208,-0.004965,0.001364
04109,8621539,0.104743,0.283958,9.686395,0.008044,-0.008342,0.001346
04110,8621564,0.205136,0.269715,9.543842,0.015321,-0.004014,0.001650
04111,8621589,0.246254,0.378146,9.496140,0.005192,0.006682,-0.000627
04112,8621614,0.113865,0.144565,9.661269,0.008928,0.008205,0.002084
04113,8621639,0.162450,0.086947,9.861471,0.015151,0.014245,0.002999
04114,8621664,-0.090149,0.308471,10.174269,0.011640,0.009630,0.001960
04115,8621689,-0.137934,0.252049,10.025640,0.014631,-0.003076,0.001546
04116,8621714,0.141138,0.349690,9.902855,0.009745,0.000512,0.002246
04117,8621739,0.005780,0.301497,9.925482,0.007101,0.004949,0.000278
04118,8621764,0.303950,0.226849,9.718758,-0.002474,0.014598,0.001102
04119,8621087,NaN,NaN,NaN,NaN,NaN,NaN
04120,8621789,-0.195235,-0.022176,10.346578,0.010803,0.006913,-0.000542
04121,8621814,-0.135127,0.294370,10.445061,0.028794,-0.009786,0.001041
04122,8621839,-0.268972,0.383534,10.388390,0.032265,-0.022955,0.000515
04123,8621864,-0.075003,0.275325,10.397875,0.043937,-0.029513,0.004623
04124,8621889,-0.241737,0.394589,10.619576,0.048850,-0.024638,0.004313
04125,8621914,-0.195536,0.148277,10.478760,0.049407,-0.042948,0.005136
04126,8621939,0.047107,0.073987,10.343590,0.068722,-0.043853,0.005377
04127,8621964,0.082964,0.175199,10.408071,0.074112,-0.039694,0.010785
04128,8621989,0.060883,0.043011,10.434954,0.085954,-0.033991,0.003362
04129,8622014,0.107829,0.122198,10.530143,0.098599,-0.031838,0.012497
04130,8622039,-0.007236,0.055036,10.853809,0.100849,-0.035986,0.009310
04131,8622064,-0.267780,0.080784,10.906654,0.115704,-0.049761,0.010694
04132,8622089,-0.067780,0.082393,10.586730,0.132898,-0.052388,0.009783
04133,8622114,-0.276088,0.145374,10.463447,0.142657,-0.058225,0.011133
04134,8622139,-0.174237,0.122564,10.326499,0.146969,-0.073662,0.013398
04135,8622164,0.198089,0.131838,10.109311,0.150635,-0.070438,0.014966
04136,8622189,0.023728,0.084524,10.210711,0.146072,-0.073203,0.008027
04137,8622214,0.007471,-0.018814,10.113362,0.154453,-0.078027,0.011411
04138,8622239,0.022386,0.245868,9.927221,0.164194,-0.076421,0.011026
04139,8622264,0.067184,0.274171,9.746802,0.157738,-0.070004,0.008299
04140,8622289,0.218938,0.244064,9.610084,0.160495,-0.073099,0.008661
04141,8622314,0.321649,0.329693,9.572149,0.158183,-0.073503,0.004030
04142,8622339,0.184453,0.269940,9.487753,0.153140,-0.067244,0.006021
04143,8622364,0.247044,0.270881,9.334324,0.160665,-0.062761,0.004388
04144,8622389,0.237134,0.359752,9.316263,0.155813,-0.055453,0.002607
04145,8622414,0.137000,0.422273,9.511194,0.143338,-0.060272,0.006407
04146,8622439,0.065901,0.347357,9.690365,0.132272,-0.063050,0.001941
04147,8622464,0.083438,0.301915,9.647979,0.136890,-0.058492,0.004459
04148,8622489,0.006387,0.369182,9.501822,0.139783,-0.057971,0.000998
04149,8622514,0.018819,0.524225,9.610613,0.132155,-0.067891,0.004122
04150,8622539,0.165583,0.579352,9.853953,0.119626,-0.071500,0.004029
04151,8622564,0.121450,0.475253,9.976719,0.106237,-0.070629,0.001619
04152,8622589,0.008379,0.272397,9.859764,0.104738,-0.070378,0.004636
04153,8622614,0.063261,0.216950,9.663020,0.119586,-0.067657,0.006852
04154,8622639,0.029363,0.366572,9.621537,0.125181,-0.062485,0.002984
04155,8622664,-0.018107,0.519360,9.805720,0.123598,-0.064580,0.011950
04156,8622689,-0.000053,0.596434,10.074913,0.112208,-0.067034,0.011595
04157,8622714,0.007511,0.227992,9.993617,0.108144,-0.068577,0.008079
04158,8622739,0.250410,-0.043764,9.754742,0.127997,-0.058623,0.005790
04159,8622764,0.298722,0.054751,10.118144,0.150078,-0.055167,0.011372
04160,8622789,0.023826,0.211629,10.618433,0.142614,-0.059652,0.011028
04161,8622814,0.026887,0.092556,10.578876,0.144372,-0.075123,0.008287
04162,8622839,0.130738,0.082859,10.344907,0.151906,-0.074753,0.005848
04163,8622864,0.014814,0.129600,10.282108,0.157305,-0.087775,0.002808
04164,8622889,0.064249,0.142202,10.276544,0.164033,-0.094262,0.003118
04165,8622914,0.156677,0.297937,10.297885,0.167518,-0.097124,0.004921
04166,8622939,-0.015812,0.436805,10.346729,0.167642,-0.108394,0.000142
04167,8622964,0.034607,0.362861,10.061253,0.171528,-0.114733,-0.000353
04168,8622989,0.110513,0.429456,9.912595,0.176436,-0.115870,0.001194
04169,8623014,0.128743,0.410240,9.808647,0.176489,-0.112389,0.004508
04170,8623039,0.759795,0.065114,9.204731,0.169992,-0.101799,-0.001438
04171,8623064,0.391027,-0.179756,9.338449,0.178365,-0.085355,-0.007385
04172,8623089,-0.523172,0.498363,10.192361,0.177636,-0.117204,-0.001678
04173,8623114,0.410434,0.518132,9.611842,0.166640,-0.120871,-0.002474
04174,8623139,0.603145,0.247112,9.270552,0.161193,-0.088172,-0.008854
04175,8623164,0.311891,0.274138,8.997400,0.165341,-0.080203,-0.010957
04176,8623189,0.288808,0.369875,8.947313,0.165308,-0.086625,-0.008617
04177,8623214,0.365902,0.653984,9.160257,0.156056,-0.086026,-0.007433
04178,8623239,0.451489,0.782191,9.137408,0.136355,-0.073154,-0.005838
04179,8623264,0.065507,0.842044,9.154300,0.126872,-0.066018,-0.003140
04180,8623289,0.106544,0.823412,8.758579,0.120685,-0.066878,0.001528
04181,8623314,0.045469,0.913591,8.917366,0.112889,-0.068311,0.003874
04182,8623339,0.185942,0.868336,8.864517,0.100455,-0.066115,0.005547
04183,8623364,0.477638,0.879948,8.628390,0.081388,-0.053871,0.004872
04184,8623389,0.255207,0.806745,8.694428,0.064407,-0.039765,0.000673
04185,8623414,0.229367,0.724244,8.730568,0.052319,-0.038131,-0.003199
04186,8623439,0.342881,0.736051,8.745307,0.041657,-0.034344,-0.006875
04187,8623464,0.119900,0.828976,9.099098,0.022448,-0.032085,-0.007892
04188,8623489,0.340629,0.742519,8.932997,0.009287,-0.032757,-0.007857
04189,8623514,0.203732,0.614441,9.188880,0.003012,-0.031939,-0.007585
04190,8623539,0.017342,0.648937,9.388423,-0.001261,-0.041972,-0.008492
04191,8623564,0.398740,0.656675,9.127295,-0.010990,-0.041170,-0.009964
04192,8623589,0.473236,0.644118,9.021232,-0.018999,-0.030336,-0.011024
04193,8623614,0.515459,0.607719,8.875746,-0.035815,-0.013328,-0.009553
04194,8623639,0.274534,0.507355,8.889632,-0.047533,-0.004530,-0.011469
04195,8623664,0.443424,0.395238,8.844637,-0.042751,0.002503,-0.014113
04196,8623689,0.054940,0.504410,9.316495,-0.042079,0.004921,-0.009172
04197,8623714,0.561522,0.573707,8.979500,-0.045016,0.006055,-0.007096
04198,8623739,0.645378,0.558875,8.836632,-0.041753,0.029468,-0.007661
04199,8623764,0.459640,0.629876,8.783185,-0.039624,0.047987,-0.006385
04200,8623789,0.410040,0.960201,8.763587,-0.044446,0.057220,-0.007811
04201,8623814,-0.865978,1.792871,10.200283,-0.080079,0.036082,0.005958
04202,8623839,-2.345498,3.084740,12.927921,-0.165649,-0.044730,0.070227
04203,8623864,0.373153,-0.560860,8.256330,-0.044055,0.044236,0.056762
04204,8623889,0.149519,1.314624,9.342467,-0.029457,0.056673,0.029590
04205,8623914,-0.319926,0.846309,9.518558,-0.083727,0.026271,0.032505
04206,8623939,1.071085,0.434193,9.884334,-0.091097,0.034732,0.025370
04207,8623964,0.360835,0.153481,11.056573,-0.096844,0.025297,0.021528
04208,8623989,0.411331,-0.641017,10.068716,-0.052683,0.014990,0.018885
04209,8624014,0.335104,0.482452,9.997969,-0.042292,0.007989,0.019076
04210,8624039,0.487369,0.403945,10.309315,-0.086559,0.006864,0.020940
04211,8624064,0.321611,-0.597252,9.994802,-0.065619,0.025431,0.010823
04212,8624089,0.076569,-0.265768,10.068380,-0.043735,0.015848,0.006645
04213,8624114,0.339226,-0.066655,9.989431,-0.045331,0.014969,-0.000770
04214,8624139,0.355320,-0.212064,10.327170,-0.039972,0.018168,-0.002465
04215,8624164,0.445733,-0.222161,10.117776,-0.038309,0.031484,-0.009088
04216,8624189,0.173144,-0.084668,10.032965,-0.029171,0.020690,-0.013982
04217,8624214,0.306401,0.121023,9.970911,-0.013655,0.014400,-0.013742
04218,8624239,0.301516,0.308095,9.909524,-0.012983,0.021740,-0.012285
04219,8624264,0.126527,0.460237,9.930549,-0.012213,0.020639,-0.014214
04220,8623587,NaN,NaN,NaN,NaN,NaN,NaN
04221,8624289,0.029349,0.469850,10.058744,-0.011493,0.014647,-0.011727
04222,8624314,-0.039560,0.577952,10.406717,-0.012690,0.008865,-0.014147
04223,8624339,0.160729,0.477120,10.392200,-0.013289,0.013163,-0.014293
04224,8624364,0.064713,0.418154,10.279684,-0.006308,0.019325,-0.014295
04225,8624389,-0.077648,0.355704,10.198138,0.002524,0.006688,-0.010802
04226,8624414,0.175883,0.268003,10.148304,0.018341,-0.000334,-0.008914
04227,8624439,0.138257,0.377160,10.305156,0.020625,-0.003976,-0.012174
04228,8624464,0.188757,0.327963,10.310475,0.019685,0.001406,-0.010441
04229,8624489,0.175708,0.273360,10.233964,0.030690,-0.001588,-0.009240
04230,8624514,0.169342,0.253507,10.192002,0.029508,-0.005373,-0.010905
04231,8624539,0.283586,0.229388,10.081232,0.035942,-0.003105,-0.014317
04232,8624564,0.211633,0.219024,10.170138,0.042001,0.000592,-0.013018
04233,8624589,0.131181,0.338140,10.150126,0.046099,-0.008236,-0.013226
04234,8624614,0.124866,0.354010,10.123208,0.043576,-0.012399,-0.016928
04235,8624639,0.226858,0.386853,9.957623,0.041362,-0.016190,-0.016902
04236,8624664,0.223289,0.428527,9.814593,0.043883,-0.011107,-0.013547
04237,8624689,0.160314,0.500190,9.720703,0.041824,-0.008963,-0.019386
04238,8624714,0.095611,0.605486,9.811632,0.040526,-0.007370,-0.018394
04239,8624739,0.105429,0.667553,9.752625,0.035439,-0.006852,-0.014164
04240,8624764,0.054563,0.688225,9.717178,0.027881,-0.005797,-0.011143
04241,8624789,-0.004616,0.657966,9.687334,0.021810,-0.009295,-0.009300
04242,8624814,0.049996,0.632432,9.604488,0.016055,-0.014414,-0.007761
04243,8624839,0.077447,0.718050,9.523902,0.014368,-0.009105,-0.004791
04244,8624864,0.089766,0.671880,9.480280,0.005416,-0.008294,-0.001876
04245,8624889,0.067176,0.611089,9.519065,0.013914,-0.005211,-0.000587
04246,8624914,0.142958,0.740194,9.585993,0.007940,-0.000221,-0.000925
04247,8624939,0.088500,0.758801,9.651164,-0.003120,0.008094,0.000969
04248,8624964,0.075085,0.681212,9.782013,-0.009570,0.005390,0.001153
04249,8624989,0.093797,0.622416,9.934217,-0.007592,0.005855,0.005940
04250,8625014,0.038450,0.651326,10.029400,-0.015967,-0.000654,0.010514
04251,8625039,0.072948,0.476680,9.911907,-0.020283,-0.000736,0.010525
04252,8625064,0.100494,0.350614,9.923155,-0.015630,-0.001678,0.008114
04253,8625089,0.108201,0.306851,10.038904,-0.008884,-0.000246,0.008705
04254,8625114,0.127862,0.196922,10.116576,0.001008,-0.005403,0.005244
04255,8625139,0.209243,0.258109,10.195754,0.001795,-0.004151,0.006569
04256,8625164,0.211061,0.332309,10.238429,0.005833,-0.004509,0.008010
04257,8625189,0.223572,0.291829,10.130164,0.004246,-0.006008,0.006523
04258,8625214,0.261403,0.204179,10.030956,0.007495,-0.009505,0.003474
04259,8625239,0.221957,0.256892,10.029621,0.007362,-0.008576,0.002598
04260,8625264,0.165671,0.309650,9.986370,0.010902,-0.010878,0.004203
04261,8625289,0.183138,0.341652,9.917130,0.017201,-0.010253,0.001601
04262,8625314,0.119127,0.442100,9.973155,0.021125,-0.014329,0.001664
04263,8625339,0.080609,0.499383,9.977016,0.020353,-0.019011,0.001471
04264,8625364,0.097662,0.563276,9.841379,0.018442,-0.019760,0.001163
04265,8625389,0.161156,0.599717,9.661776,0.017697,-0.022441,0.000369
04266,8625414,0.156372,0.581422,9.523544,0.015300,-0.019240,0.002932
04267,8625439,0.085560,0.715712,9.319792,0.012583,-0.023519,0.003705
04268,8625464,0.388711,0.548164,9.262144,0.009785,-0.011569,0.003511
04269,8625489,0.190851,0.670658,9.261026,0.011297,-0.001271,0.007013
04270,8625514,0.196430,0.696684,9.293911,0.002352,-0.003034,0.010433
04271,8625539,0.168916,0.617236,9.327412,-0.000365,0.000887,0.008699
04272,8625564,0.213888,0.591049,9.387640,-0.002968,0.004730,0.014340
04273,8625589,0.224388,0.577096,9.398155,-0.003409,0.005925,0.013929
04274,8625614,0.288909,0.495470,9.490425,-0.002548,0.013436,0.015470
04275,8625639,0.293739,0.471930,9.590946,-0.003299,0.023826,0.011837
04276,8625664,0.250717,0.468296,9.709870,-0.004071,0.026520,0.013290
04277,8625689,0.195059,0.409146,9.807096,-0.003900,0.032989,0.015082
04278,8625714,0.194485,0.393109,9.899220,-0.001204,0.036683,0.016835
04279,8625739,0.215500,0.348972,9.980142,-0.001702,0.041165,0.013620
04280,8625764,0.207502,0.265831,10.066138,0.001732,0.043475,0.013649
04281,8625789,0.178681,0.282294,10.105664,0.008310,0.043025,0.014389
04282,8625814,0.192846,0.299184,10.128268,0.009076,0.048245,0.011873
04283,8625839,0.188410,0.303625,10.150034,0.013336,0.050213,0.012823
04284,8625864,0.152660,0.325453,10.095742,0.016221,0.047516,0.010224
04285,8625889,0.164586,0.334295,10.052803,0.017931,0.049213,0.010899
04286,8625914,0.114109,0.370103,10.008094,0.019667,0.048021,0.014410
04287,8625939,0.083117,0.415114,9.940783,0.025342,0.048267,0.014747
04288,8625964,0.067488,0.407892,9.898009,0.027487,0.049426,0.013549
04289,8625989,0.026213,0.460717,9.845620,0.034671,0.046345,0.016368
04290,8626014,0.016754,0.420700,9.778627,0.032056,0.042178,0.014377
04291,8626039,0.017953,0.415468,9.744436,0.035230,0.033852,0.012869
04292,8626064,0.069996,0.430394,9.809405,0.037128,0.024200,0.012492
04293,8626089,0.102673,0.441589,9.832269,0.036203,0.015371,0.014038
04294,8626114,0.117780,0.447004,9.824713,0.032590,0.012121,0.012208
04295,8626139,0.123501,0.462343,9.823853,0.033271,0.008387,0.012762
04296,8626164,0.095681,0.430974,9.807189,0.031904,0.004039,0.009485
04297,8626189,0.127978,0.374445,9.807788,0.030006,0.002760,0.010446
04298,8626214,0.113230,0.394482,9.823094,0.028776,0.003917,0.010068
04299,8626239,0.107886,0.401570,9.803590,0.029475,-0.003496,0.012457
04300,8626264,0.068334,0.384925,9.822187,0.030989,-0.001825,0.009441
04301,8626289,-0.140486,0.490115,9.844116,0.034472,-0.002185,0.017423
04302,8626314,-0.320121,0.429618,9.881246,0.028937,-0.008689,0.028413
04303,8626339,-0.179323,0.289794,9.861748,0.030022,-0.013772,0.033826
04304,8626364,-0.156622,0.404217,9.785927,0.028756,-0.015350,0.042715
04305,8626389,-0.162440,0.305317,9.651439,0.030673,-0.019804,0.047656
04306,8626414,-0.109858,0.328622,9.725032,0.039452,-0.014552,0.047549
04307,8626439,-0.112993,0.352434,9.946284,0.038040,-0.014806,0.054822
04308,8626464,-0.091921,0.370807,10.098180,0.036762,-0.017607,0.062943
04309,8626489,-0.029899,0.335685,10.150630,0.042384,-0.018230,0.070518
04310,8626514,-0.029325,0.341413,10.255414,0.044224,-0.016020,0.077567
04311,8626539,-0.055737,0.339879,10.294917,0.052463,-0.021708,0.084259
04312,8626564,-0.048750,0.446399,10.316744,0.061194,-0.018734,0.091743
04313,8626589,-0.102461,0.569702,10.380413,0.067099,-0.017573,0.098132
04314,8626614,-0.193826,0.638361,10.502787,0.070300,-0.015880,0.108295
04315,8626639,-0.266750,0.663231,10.647939,0.066758,-0.018977,0.118253
04316,8626664,-0.297603,0.635980,10.700796,0.071149,-0.018443,0.128742
04317,8626689,-0.312460,0.562373,10.678940,0.073820,-0.022051,0.140352
04318,8626714,-0.300104,0.525771,10.646011,0.084292,-0.024320,0.150865
04319,8626739,-0.240274,0.491389,10.458871,0.095481,-0.023945,0.157660
04320,8626764,-0.188811,0.487493,10.336362,0.107599,-0.021218,0.164489
04321,8626789,-0.235367,0.547124,10.331554,0.119849,-0.018597,0.171714
04322,8626814,-0.225966,0.566975,10.216415,0.127908,-0.024170,0.180260
04323,8626087,NaN,NaN,NaN,NaN,NaN,NaN
04324,8626839,-0.231085,0.620167,10.136768,0.136264,-0.025359,0.187836
04325,8626864,-0.157430,0.664198,10.052594,0.140166,-0.026697,0.196468
04326,8626889,-0.137706,0.703022,9.941938,0.137021,-0.022429,0.204309
04327,8626914,-0.135399,0.697670,9.870964,0.135080,-0.023939,0.206960
04328,8626939,-0.011309,0.641150,9.766187,0.132113,-0.020616,0.211579
04329,8626964,0.014419,0.642761,9.655702,0.133338,-0.016810,0.215522
04330,8626989,0.123692,0.553653,9.494575,0.123202,-0.015362,0.220300
04331,8627014,0.253365,0.470032,9.341879,0.125667,-0.006902,0.225047
04332,8627039,0.303134,0.432027,9.237559,0.122065,0.003583,0.225594
04333,8627064,0.248851,0.388277,9.148281,0.115678,0.004330,0.228272
04334,8627089,0.308390,0.329932,9.104281,0.109061,0.006532,0.228614
04335,8627114,0.272790,0.334049,9.126052,0.102998,0.011215,0.228538
04336,8627139,0.281824,0.321878,9.136311,0.093795,0.015282,0.230103
04337,8627164,0.238372,0.287153,9.209370,0.080668,0.013354,0.231654
04338,8627189,0.186378,0.246959,9.363371,0.070219,0.015745,0.232422
04339,8627214,0.156153,0.174943,9.523167,0.061204,0.017197,0.232636
04340,8627239,0.120373,0.138311,9.747711,0.057944,0.009493,0.228254
04341,8627264,0.114901,0.125957,9.962694,0.060166,0.013816,0.230620
04342,8627289,0.040158,0.155713,10.175288,0.064769,0.010335,0.230838
04343,8627314,-0.094067,0.255722,10.316684,0.064038,0.010268,0.231443
04344,8627339,-0.175819,0.248093,10.431031,0.066974,-0.001059,0.233173
04345,8627364,-0.217157,0.239717,10.564737,0.077154,-0.012273,0.237579
04346,8627389,-0.208009,0.317638,10.666892,0.080621,-0.020564,0.239269
04347,8627414,-0.170805,0.268602,10.692358,0.088874,-0.027737,0.240446
04348,8627439,-0.158372,0.261505,10.697985,0.098532,-0.041077,0.244618
04349,8627464,-0.144899,0.330314,10.716691,0.104097,-0.051986,0.249100
04350,8627489,-0.109839,0.321868,10.738839,0.107814,-0.061904,0.246467
04351,8627514,-0.079287,0.476182,10.670341,0.111673,-0.071834,0.251656
04352,8627539,-0.073530,0.587262,10.601167,0.101768,-0.075904,0.251573
04353,8627564,-0.038402,0.551406,10.490877,0.100204,-0.083612,0.253683
04354,8627589,0.036540,0.616943,10.287211,0.090792,-0.087586,0.258241
04355,8627614,0.174352,0.663259,10.015739,0.075183,-0.090894,0.262039
04356,8627639,0.223145,0.656704,9.746296,0.049289,-0.086993,0.258978
04357,8627664,0.236987,0.362428,9.726095,0.048111,-0.088386,0.258229
04358,8627689,0.265204,0.687641,9.482147,0.022801,-0.078750,0.258697
04359,8627714,0.189869,0.645798,9.280028,-0.011741,-0.080194,0.255879
04360,8627739,0.350650,0.424900,9.163485,-0.032835,-0.072183,0.253194
04361,8627764,0.305666,0.498327,9.138307,-0.055645,-0.066847,0.249205
04362,8627789,0.358269,0.471076,9.012937,-0.080486,-0.054668,0.244566
04363,8627814,0.364198,0.361111,9.128813,-0.098877,-0.037588,0.240969
04364,8627839,0.121718,0.486353,9.171891,-0.127538,-0.039643,0.241200
04365,8627864,0.233286,0.359467,9.386261,-0.148323,-0.041209,0.234228
04366,8627889,0.246120,0.273323,9.542226,-0.161928,-0.027339,0.232471
04367,8627914,0.179539,0.398077,9.729611,-0.176953,-0.024667,0.231267
04368,8627939,0.097617,0.427004,9.872894,-0.191230,-0.017755,0.230147
04369,8627964,0.037658,0.372745,10.054609,-0.198241,-0.013217,0.231316
04370,8627989,-0.076045,0.491336,10.227018,-0.201069,-0.011937,0.233740
04371,8628014,-0.128961,0.535079,10.400726,-0.210413,-0.018975,0.235147
04372,8628039,-0.164827,0.485441,10.541049,-0.213905,-0.020786,0.241452
04373,8628064,-0.225680,0.509249,10.714986,-0.212643,-0.031453,0.246920
04374,8628089,-0.253481,0.426939,10.856087,-0.211304,-0.041348,0.253018
04375,8628114,-0.281317,0.400449,10.990975,-0.199163,-0.049013,0.258706
04376,8628139,-0.305799,0.432167,11.131414,-0.193575,-0.057720,0.271132
04377,8628164,-0.328914,0.376113,11.243550,-0.177297,-0.067553,0.279478
04378,8628189,-0.378009,0.331107,11.283763,-0.164023,-0.072940,0.286413
04379,8628214,-0.397966,0.372599,11.214677,-0.148337,-0.083929,0.294208
04380,8628239,-0.391969,0.247854,11.222523,-0.131708,-0.098023,0.303713
04381,8628264,-0.318654,0.257607,11.204748,-0.109574,-0.101262,0.310192
04382,8628289,-0.273095,0.398325,11.114661,-0.104053,-0.104502,0.319626
04383,8628314,-0.165475,0.260291,11.031084,-0.090744,-0.110582,0.330130
04384,8628339,-0.202380,0.340942,10.857528,-0.081639,-0.118586,0.339670
04385,8628364,-0.009512,0.346320,10.609902,-0.079964,-0.121751,0.346305
04386,8628389,0.192404,0.316951,10.493567,-0.079222,-0.120291,0.350850
04387,8628414,0.304301,0.266037,10.348045,-0.084703,-0.109363,0.354867
04388,8628439,0.446948,0.238472,10.189333,-0.084835,-0.104521,0.361718
04389,8628464,0.470162,0.240043,10.046005,-0.092903,-0.088143,0.363597
04390,8628489,0.467453,0.246905,9.859953,-0.104780,-0.080647,0.363668
04391,8628514,0.540582,0.223759,9.785873,-0.113952,-0.072777,0.366812
04392,8628539,0.589266,0.253167,9.691568,-0.130370,-0.062555,0.361865
04393,8628564,0.650701,0.281815,9.591498,-0.148225,-0.047769,0.360257
04394,8628589,0.645819,0.323262,9.554113,-0.164013,-0.036852,0.361922
04395,8628614,0.663418,0.250055,9.554376,-0.182514,-0.023976,0.360148
04396,8628639,0.690286,0.206825,9.648844,-0.200290,-0.009531,0.353865
04397,8628664,0.636585,0.266770,9.866744,-0.218612,0.005182,0.352987
04398,8628689,0.645595,0.186821,9.994956,-0.233598,0.015724,0.347518
04399,8628714,0.612911,0.138934,10.054151,-0.239873,0.026975,0.349649
04400,8628739,0.475445,0.326881,10.222422,-0.255573,0.041769,0.346678
04401,8628764,0.441255,0.284993,10.346893,-0.268081,0.047382,0.349055
04402,8628789,0.433688,0.303851,10.399695,-0.280047,0.057534,0.346597
04403,8628814,0.371563,0.285324,10.431971,-0.288691,0.063530,0.347061
04404,8628839,0.292217,0.157872,10.440529,-0.290555,0.070231,0.346615
04405,8628864,0.259983,0.096099,10.535970,-0.294238,0.078406,0.348770
04406,8628889,0.200150,0.117864,10.723990,-0.294775,0.082392,0.349050
04407,8628914,0.182095,-0.016390,10.815872,-0.303370,0.079607,0.355550
04408,8628939,0.162360,-0.143188,10.824241,-0.293794,0.085478,0.353657
04409,8628964,0.140400,-0.000355,10.771314,-0.296147,0.085441,0.356036
04410,8628989,0.057933,-0.545903,11.069283,-0.275271,0.077581,0.354631
04411,8629014,0.130448,-0.405430,11.262878,-0.246418,0.079722,0.356445
04412,8629039,0.046312,-0.132131,11.298265,-0.239898,0.081209,0.358363
04413,8629064,0.165765,-0.410400,11.128610,-0.230092,0.074557,0.364041
04414,8629089,0.126780,-0.557281,11.168521,-0.199193,0.080232,0.360080
04415,8629114,0.211420,-0.295997,11.012533,-0.178288,0.079260,0.365033
04416,8629139,0.202698,-0.234765,11.003254,-0.162709,0.086255,0.365866
04417,8629164,-0.059230,-0.062839,10.865743,-0.148864,0.077387,0.371455
04418,8629189,0.025715,-0.061275,10.819403,-0.143729,0.070965,0.372424
04419,8629214,0.141604,-0.165705,10.740721,-0.128534,0.078989,0.374611
04420,8629239,0.116946,-0.000190,10.557402,-0.116782,0.084784,0.375972
04421,8629264,0.073038,0.197564,10.491242,-0.120141,0.084620,0.380472
04422,8629289,0.105195,0.180309,10.386457,-0.116014,0.088952,0.381508
04423,8628587,NaN,NaN,NaN,NaN,NaN,NaN
04424,8629314,0.149720,0.342527,10.322733,-0.113325,0.096490,0.384704
04425,8629339,0.085259,0.572361,10.288049,-0.119948,0.101315,0.387875
04426,8629364,0.146526,0.577443,10.246724,-0.130758,0.104592,0.392916
04427,8629389,0.130452,0.794703,10.248865,-0.139564,0.108015,0.397215
04428,8629414,0.071589,0.953485,10.267522,-0.153136,0.114287,0.403141
04429,8629439,0.093750,1.045809,10.276983,-0.169955,0.118963,0.405178
04430,8629464,0.096589,1.136794,10.273888,-0.191765,0.125415,0.414973
04431,8629489,0.121788,1.210173,10.265308,-0.209893,0.136868,0.421862
04432,8629514,0.040137,1.215504,10.303491,-0.226124,0.143830,0.425739
04433,8629539,0.063838,1.166632,10.369047,-0.241785,0.152630,0.433142
04434,8629564,0.035907,1.083541,10.449504,-0.257635,0.160181,0.435903
04435,8629589,-0.001746,1.020587,10.506259,-0.269565,0.165165,0.442455
04436,8629614,-0.035664,0.857689,10.562999,-0.279398,0.164161,0.444663
04437,8629639,-0.061882,0.705169,10.756013,-0.281079,0.170567,0.449767
04438,8629664,-0.150544,0.594032,11.001143,-0.277440,0.165329,0.450558
04439,8629689,-0.071776,0.450365,11.076566,-0.272100,0.165790,0.453644
04440,8629714,-0.078188,0.328090,11.087916,-0.264451,0.165673,0.454313
04441,8629739,-0.152791,0.204764,11.170731,-0.247918,0.162979,0.454111
04442,8629764,-0.174721,0.030274,11.247205,-0.227863,0.156220,0.457985
04443,8629789,-0.124002,-0.032242,11.374681,-0.206691,0.148021,0.458490
04444,8629814,-0.210173,-0.094847,11.450877,-0.188501,0.136704,0.456888
04445,8629839,-0.230473,-0.218047,11.439290,-0.166735,0.124360,0.453023
04446,8629864,-0.234350,-0.246203,11.473389,-0.143130,0.110485,0.458505
04447,8629889,-0.231349,-0.258112,11.480381,-0.125492,0.100239,0.456738
04448,8629914,-0.207833,-0.343458,11.382320,-0.103170,0.097252,0.452382
04449,8629939,-0.204436,-0.320401,11.298339,-0.081697,0.087949,0.451895
04450,8629964,-0.161919,-0.316355,11.167461,-0.064336,0.078521,0.447925
04451,8629989,-0.153909,-0.335640,11.044016,-0.047177,0.070115,0.444161
04452,8630014,-0.144585,-0.253437,10.955598,-0.033458,0.061806,0.439777
04453,8630039,-0.169359,-0.200688,10.916882,-0.026801,0.057354,0.437840
04454,8630064,-0.180956,-0.045740,10.922588,-0.023733,0.041560,0.435212
04455,8630089,-0.212222,0.121813,10.918374,-0.025453,0.031469,0.431543
04456,8630114,-0.201833,0.216342,10.908365,-0.027099,0.030334,0.428783
04457,8630139,-0.183178,0.365529,10.875902,-0.029308,0.019789,0.428926
04458,8630164,-0.122779,0.443745,10.818617,-0.034758,0.017051,0.426865
04459,8630189,-0.102000,0.514187,10.781862,-0.041945,0.015331,0.425044
04460,8630214,-0.040739,0.586813,10.808474,-0.042695,0.020637,0.421961
04461,8630239,-0.080802,0.631873,10.826207,-0.063622,0.019392,0.419416
04462,8630264,-0.099909,0.599376,10.736897,-0.070243,0.022513,0.419798
04463,8630289,-0.138224,0.650060,10.791317,-0.082204,0.020748,0.415976
04464,8630314,-0.126590,0.605078,10.748049,-0.093991,0.022794,0.417977
04465,8630339,-0.137600,0.505036,10.638748,-0.099003,0.025616,0.412456
04466,8630364,-0.189234,0.608641,10.577401,-0.113261,0.025604,0.411157
04467,8630389,-0.147796,0.502178,10.451676,-0.124663,0.028858,0.409073
04468,8630414,-0.137616,0.405143,10.357560,-0.130737,0.030816,0.407641
04469,8630439,-0.142276,0.304195,10.341787,-0.140442,0.034861,0.401828
04470,8630464,-0.147344,0.148847,10.388013,-0.143196,0.037076,0.399565
04471,8630489,-0.138888,0.073149,10.466297,-0.143591,0.034522,0.396933
04472,8630514,-0.169969,-0.048147,10.561259,-0.142483,0.036251,0.391521
04473,8630539,-0.252062,-0.173436,10.685096,-0.129490,0.033461,0.385868
04474,8630564,-0.286920,-0.246589,10.796430,-0.115603,0.027112,0.383421
04475,8630589,-0.296979,-0.261134,10.901672,-0.100826,0.022847,0.377961
04476,8630614,-0.352941,-0.270144,11.016833,-0.087555,0.015790,0.374607
04477,8630639,-0.367064,-0.301568,11.054605,-0.070409,0.006761,0.371500
04478,8630664,-0.354634,-0.335516,11.107757,-0.048812,0.003348,0.369189
04479,8630689,-0.418288,-0.342796,11.186065,-0.035693,-0.009045,0.366267
04480,8630714,-0.386274,-0.366255,11.230426,-0.015673,-0.024557,0.363820
04481,8630739,-0.359201,-0.352915,11.280770,0.006541,-0.035036,0.361804
04482,8630764,-0.306041,-0.397357,11.264017,0.018530,-0.044218,0.354574
04483,8630789,-0.259811,-0.439684,11.191287,0.038495,-0.052418,0.347825
04484,8630814,-0.224513,-0.367763,11.178633,0.059413,-0.059569,0.345818
04485,8630839,-0.196009,-0.347633,11.064318,0.078776,-0.067255,0.340416
04486,8630864,-0.167502,-0.287260,10.893320,0.088472,-0.072654,0.332872
04487,8630889,-0.157865,-0.159383,10.738122,0.096411,-0.078845,0.325463
04488,8630914,-0.098424,-0.090748,10.539315,0.097892,-0.085697,0.322496
04489,8630939,-0.058825,0.011427,10.390669,0.099685,-0.090912,0.314584
04490,8630964,0.015397,0.106338,10.251913,0.097480,-0.098777,0.309441
04491,8630989,0.040036,0.184770,10.156463,0.087193,-0.100091,0.302263
04492,8631014,0.058736,0.250382,10.082714,0.077004,-0.097677,0.298882
04493,8631039,0.057541,0.273628,10.039944,0.065849,-0.095475,0.291479
04494,8631064,0.059759,0.333243,10.016864,0.055415,-0.094207,0.287186
04495,8631089,0.061158,0.355790,9.959789,0.045598,-0.095493,0.282735
04496,8631114,0.022703,0.377660,9.898693,0.031819,-0.092089,0.274334
04497,8631139,0.020550,0.358477,9.839836,0.015271,-0.092644,0.272249
04498,8631164,0.004006,0.367609,9.808515,0.003292,-0.087300,0.267247
04499,8631189,-0.085772,0.418952,9.790482,-0.007938,-0.085138,0.262854
04500,8631214,-0.118294,0.347604,9.768412,-0.019604,-0.085415,0.255176
04501,8631239,-0.154049,0.326994,9.807353,-0.029099,-0.088148,0.255256
04502,8631264,-0.232216,0.264998,9.880126,-0.035274,-0.084262,0.252760
04503,8631289,-0.282130,0.220139,9.935709,-0.043027,-0.089720,0.249440
04504,8631314,-0.290446,0.158223,10.013623,-0.046599,-0.092839,0.249344
04505,8631339,-0.307065,0.083698,10.105938,-0.048009,-0.095658,0.247882
04506,8631364,-0.373279,-0.001540,10.219550,-0.049354,-0.101852,0.246658
04507,8631389,-0.378079,-0.064008,10.318876,-0.045408,-0.109145,0.246166
04508,8631414,-0.359253,-0.062693,10.458590,-0.040384,-0.116056,0.244316
04509,8631439,-0.353513,-0.047717,10.566286,-0.034051,-0.121269,0.241370
04510,8631464,-0.334942,-0.098444,10.634139,-0.023867,-0.126907,0.242641
04511,8631489,-0.355244,-0.041969,10.723009,-0.012007,-0.139630,0.237567
04512,8631514,-0.333125,0.002078,10.758936,-0.001714,-0.141287,0.235579
04513,8631539,-0.304117,0.103592,10.768231,0.007496,-0.149035,0.233319
04514,8631564,-0.305085,0.192196,10.797533,0.015051,-0.156230,0.234438
04515,8631589,-0.301026,0.224802,10.715468,0.025240,-0.164297,0.233591
04516,8631614,-0.231694,0.307478,10.635866,0.029985,-0.167318,0.233457
04517,8631639,-0.220118,0.371378,10.500274,0.030916,-0.174527,0.232165
04518,8631664,-0.180115,0.429237,10.389637,0.031716,-0.176603,0.233164
04519,8631689,-0.125467,0.495096,10.275519,0.026595,-0.179350,0.228263
04520,8631714,-0.053544,0.507186,10.159043,0.013626,-0.178489,0.230633
04521,8631739,0.003685,0.531882,10.074446,0.003349,-0.180395,0.224943
04522,8631764,0.065829,0.532461,9.986774,-0.009960,-0.181155,0.222158
04523,8631789,0.125142,0.494043,9.862221,-0.025013,-0.174372,0.218577
04524,8631087,NaN,NaN,NaN,NaN,NaN,NaN
04525,8631814,0.143910,0.505691,9.782956,-0.045101,-0.173883,0.219285
04526,8631839,0.186022,0.458261,9.685894,-0.063097,-0.173450,0.218714
04527,8631864,0.186907,0.453740,9.674653,-0.084136,-0.170258,0.213405
04528,8631889,0.194366,0.410538,9.606399,-0.104442,-0.166130,0.214589
04529,8631914,0.220816,0.328742,9.587414,-0.123684,-0.161365,0.207669
04530,8631939,0.207516,0.281273,9.600004,-0.141759,-0.160629,0.203804
04531,8631964,0.191106,0.157293,9.614702,-0.160077,-0.152646,0.197124
04532,8631989,0.179811,0.100386,9.633792,-0.173618,-0.148052,0.195812
04533,8632014,0.140258,0.048923,9.689102,-0.184287,-0.148320,0.193439
04534,8632039,0.127336,-0.022720,9.751674,-0.193124,-0.140929,0.184732
04535,8632064,0.129534,-0.110535,9.771466,-0.200936,-0.130969,0.183740
04536,8632089,0.114802,-0.168579,9.802494,-0.205587,-0.137550,0.177561
04537,8632114,0.101621,-0.178336,9.836754,-0.205584,-0.137462,0.172883
04538,8632139,0.074611,-0.223018,9.845424,-0.213870,-0.136317,0.168511
04539,8632164,0.079317,-0.296850,9.907918,-0.210078,-0.135316,0.160777
04540,8632189,0.027110,-0.302900,9.982813,-0.207005,-0.136639,0.155095
04541,8632214,0.012860,-0.354033,10.061769,-0.203064,-0.140703,0.152805
04542,8632239,-0.045738,-0.356228,10.177345,-0.192349,-0.144863,0.144454
04543,8632264,-0.080983,-0.348324,10.238057,-0.185122,-0.141418,0.141878
04544,8632289,-0.065954,-0.422761,10.281891,-0.169510,-0.149843,0.140413
04545,8632314,-0.064902,-0.375390,10.342608,-0.157642,-0.150207,0.133681
04546,8632339,-0.100484,-0.355076,10.328345,-0.141582,-0.154679,0.127862
04547,8632364,-0.125811,-0.307799,10.233642,-0.124566,-0.158587,0.122487
04548,8632389,-0.058812,-0.124684,10.228819,-0.111899,-0.160453,0.123212
04549,8632414,-0.126011,-0.162986,10.123067,-0.105324,-0.163329,0.115783
04550,8632439,-0.078236,-0.078814,10.089547,-0.098638,-0.166386,0.114699
04551,8632464,0.010857,-0.124429,10.000165,-0.095135,-0.166187,0.113579
04552,8632489,-0.009847,-0.137342,9.931909,-0.087579,-0.162840,0.114832
04553,8632514,0.020682,-0.156088,9.866956,-0.088361,-0.161219,0.113510
04554,8632539,0.146883,-0.225629,9.809108,-0.085063,-0.153545,0.105187
04555,8632564,0.080907,-0.278984,9.746819,-0.080229,-0.150684,0.104875
04556,8632589,0.166015,-0.325446,9.660541,-0.077659,-0.139993,0.101996
04557,8632614,0.221010,-0.345815,9.553604,-0.074777,-0.126791,0.092541
04558,8632639,0.185701,-0.291716,9.418173,-0.069992,-0.115977,0.091707
04559,8632664,0.245832,-0.315612,9.228765,-0.073531,-0.102103,0.088830
04560,8632689,0.257028,-0.226760,9.073613,-0.073217,-0.089514,0.087167
04561,8632714,0.270163,-0.187195,8.982471,-0.081396,-0.074929,0.085316
04562,8632739,0.314635,-0.142034,8.896385,-0.085710,-0.056496,0.081506
04563,8632764,0.314552,-0.064481,8.872009,-0.099401,-0.037700,0.079157
04564,8632789,0.309216,-0.061904,8.830673,-0.108494,-0.023124,0.075006
04565,8632814,0.250536,-0.002758,8.840391,-0.115775,-0.009185,0.076068
04566,8632839,0.247764,-0.022530,8.866070,-0.127010,0.006308,0.072672
04567,8632864,0.249634,0.004059,8.938630,-0.136122,0.020539,0.072340
04568,8632889,0.193279,0.039913,8.997004,-0.150958,0.034874,0.072179
04569,8632914,0.161903,-0.029587,9.078173,-0.156084,0.046595,0.077597
04570,8632939,0.134952,-0.059707,9.139012,-0.164382,0.061480,0.073802
04571,8632964,0.086238,-0.092877,9.199965,-0.172502,0.071607,0.075256
04572,8632989,0.006101,-0.129035,9.291526,-0.178762,0.077171,0.079124
04573,8633014,-0.011225,-0.177911,9.377986,-0.183432,0.083516,0.078935
04574,8633039,-0.051129,-0.250445,9.481772,-0.186318,0.091448,0.081211
04575,8633064,-0.143356,-0.247649,9.569021,-0.190878,0.093088,0.083766
04576,8633089,-0.173432,-0.382613,9.731996,-0.185622,0.089324,0.084675
04577,8633114,-0.201868,-0.415689,9.948232,-0.180534,0.094222,0.083662
04578,8633139,-0.268885,-0.386646,10.006743,-0.172086,0.091719,0.084842
04579,8633164,-0.238266,-0.537564,10.050685,-0.163564,0.091324,0.088843
04580,8633189,-0.279828,-0.538069,10.042057,-0.153057,0.089722,0.091980
04581,8633214,-0.286292,-0.613390,10.025075,-0.142370,0.087383,0.093853
04582,8633239,-0.216707,-0.671668,10.070001,-0.130324,0.083745,0.089677
04583,8633264,-0.217075,-0.719227,10.095016,-0.116500,0.085352,0.096133
04584,8633289,-0.219157,-0.777519,10.124367,-0.106624,0.081559,0.093890
04585,8633314,-0.167748,-0.883799,10.105399,-0.088786,0.082069,0.094303
04586,8633339,-0.227538,-0.886792,10.038557,-0.073893,0.080273,0.094072
04587,8633364,-0.204134,-0.948993,9.996851,-0.056584,0.082649,0.094115
04588,8633389,-0.098781,-0.994451,9.941757,-0.039870,0.082787,0.096459
04589,8633414,-0.083764,-0.915675,9.844936,-0.022447,0.086852,0.093775
04590,8633439,-0.117347,-0.946252,9.712675,-0.006385,0.090735,0.094200
04591,8633464,-0.066401,-0.863520,9.590484,0.007979,0.091260,0.092598
04592,8633489,-0.107661,-0.793183,9.465794,0.018086,0.100183,0.093973
04593,8633514,-0.102683,-0.785191,9.350840,0.028984,0.099976,0.092401
04594,8633539,-0.021626,-0.658353,9.285240,0.038172,0.106538,0.092333
04595,8633564,-0.029825,-0.644941,9.229190,0.043591,0.111195,0.093200
04596,8633589,-0.037934,-0.519051,9.217120,0.046008,0.119147,0.091939
04597,8633614,-0.018696,-0.447751,9.204673,0.045338,0.126492,0.091215
04598,8633639,-0.003596,-0.366898,9.174340,0.037756,0.137327,0.092370
04599,8633664,-0.031082,-0.298801,9.171302,0.031622,0.141696,0.097353
04600,8633689,-0.004819,-0.269562,9.174903,0.024431,0.149197,0.095352
04601,8633714,0.009845,-0.262131,9.284147,0.017417,0.161781,0.096969
04602,8633739,-0.030113,-0.198112,9.342619,0.009014,0.167497,0.095513
04603,8633764,-0.045785,-0.171024,9.414067,-0.000976,0.173187,0.099168
04604,8633789,-0.144878,-0.175530,9.529603,-0.016065,0.177469,0.102233
04605,8633814,-0.172068,-0.243685,9.562207,-0.027566,0.180987,0.104917
04606,8633839,-0.168210,-0.205690,9.636857,-0.031926,0.180387,0.101208
04607,8633864,-0.191497,-0.255612,9.735647,-0.041465,0.181428,0.102199
04608,8633889,-0.218054,-0.378906,9.882927,-0.047664,0.180880,0.107681
04609,8633914,-0.299378,-0.326328,10.059100,-0.052741,0.182156,0.103763
04610,8633939,-0.280331,-0.402892,10.172137,-0.048867,0.179406,0.106495
04611,8633964,-0.332714,-0.466182,10.298009,-0.044423,0.180370,0.108492
04612,8633989,-0.364986,-0.375261,10.442994,-0.041512,0.172489,0.111296
04613,8634014,-0.364601,-0.458200,10.507986,-0.037202,0.170057,0.115193
04614,8634039,-0.368161,-0.440584,10.544259,-0.026591,0.161111,0.117438
04615,8634064,-0.385998,-0.395370,10.601245,-0.018789,0.157329,0.120261
04616,8634089,-0.383683,-0.473269,10.611358,-0.014025,0.150620,0.122247
04617,8634114,-0.427278,-0.478941,10.617538,-0.002003,0.140255,0.129396
04618,8634139,-0.453224,-0.437770,10.646632,0.007951,0.129976,0.132654
04619,8634164,-0.363689,-0.505662,10.648518,0.020329,0.122739,0.138774
04620,8634189,-0.391288,-0.518707,10.650578,0.035646,0.114376,0.145025
04621,8634214,-0.453202,-0.532187,10.612673,0.046594,0.106960,0.148379
04622,8634239,-0.409640,-0.568237,10.453216,0.060510,0.100369,0.151684
04623,8634264,-0.377484,-0.452856,10.354278,0.071304,0.092167,0.159290
04624,8633587,NaN,NaN,NaN,NaN,NaN,NaN
04625,8634289,-0.405607,-0.495042,10.184081,0.078452,0.080629,0.166193
04626,8634314,-0.280113,-0.455393,10.134339,0.086532,0.074794,0.169007
04627,8634339,-0.307672,-0.410507,10.085861,0.083671,0.069799,0.176292
04628,8634364,-0.241534,-0.468252,9.987673,0.087524,0.063565,0.177737
04629,8634389,-0.219596,-0.395632,9.917571,0.088244,0.064892,0.182574
04630,8634414,-0.228690,-0.318252,9.867208,0.083812,0.057770,0.184432
04631,8634439,-0.218234,-0.393931,9.793259,0.080100,0.051499,0.191707
04632,8634464,-0.169561,-0.362888,9.706401,0.074031,0.049568,0.192624
04633,8634489,-0.193857,-0.245181,9.693535,0.063724,0.048091,0.196452
04634,8634514,-0.100601,-0.274240,9.614768,0.056515,0.042825,0.201605
04635,8634539,-0.153428,-0.271550,9.595451,0.051116,0.042360,0.204010
04636,8634564,-0.103722,-0.274164,9.590371,0.035042,0.038715,0.203603
04637,8634589,-0.166102,-0.233222,9.693528,0.027872,0.035963,0.208826
04638,8634614,-0.112058,-0.299485,9.706214,0.022507,0.036850,0.210799
04639,8634639,-0.177735,-0.212994,9.822818,0.016286,0.033744,0.212912
04640,8634664,-0.097580,-0.259853,9.837672,0.003671,0.034691,0.212391
04641,8634689,-0.108402,-0.348076,9.799288,0.006589,0.030565,0.219642
04642,8634714,-0.176764,-0.209695,9.877532,-0.002545,0.026206,0.221885
04643,8634739,-0.156090,-0.316062,9.894578,-0.006664,0.023413,0.226391
04644,8634764,-0.198429,-0.375463,9.901659,-0.006574,0.019688,0.228197
04645,8634789,-0.231357,-0.405645,9.883706,-0.009294,0.009299,0.235219
04646,8634814,-0.205377,-0.430978,9.925051,-0.005929,0.003479,0.236332
04647,8634839,-0.217536,-0.398789,9.943980,-0.009868,0.002132,0.239188
04648,8634864,-0.281070,-0.532219,9.933175,-0.016344,0.000062,0.247299
04649,8634889,-0.211453,-0.679841,9.962086,0.001255,-0.011173,0.246858
04650,8634914,-0.171298,-0.450827,10.002281,-0.002494,-0.015515,0.250138
04651,8634939,-0.141476,-0.778006,9.828644,0.002263,-0.018474,0.256125
04652,8634964,-0.162224,-0.675037,9.833160,0.011083,-0.025114,0.257293
04653,8634989,-0.082986,-0.642343,9.790698,0.015678,-0.025576,0.261160
04654,8635014,-0.034364,-0.737413,9.827347,0.019766,-0.024827,0.261433
04655,8635039,-0.111907,-0.878089,9.721271,0.032810,-0.026317,0.263580
04656,8635064,0.287211,-0.374843,9.994708,0.028328,-0.008708,0.257925
04657,8635089,-0.529784,-0.971337,9.558870,0.045177,-0.028113,0.271861
04658,8635114,0.128349,-0.571011,9.615579,0.059279,-0.024651,0.270047
04659,8635139,0.171510,-0.383441,9.598016,0.057123,-0.020112,0.271425
04660,8635164,0.007534,-0.562747,9.480490,0.053924,-0.010277,0.274559
04661,8635189,0.130442,-0.363425,9.496879,0.055627,-0.012717,0.272711
04662,8635214,0.154022,-0.352184,9.442587,0.047588,-0.008576,0.275081
04663,8635239,0.168287,-0.526217,9.271229,0.054189,0.001650,0.279333
04664,8635264,0.135722,-0.303115,9.282707,0.056406,0.008097,0.280599
04665,8635289,0.202800,-0.208584,9.298052,0.041790,0.011959,0.284397
04666,8635314,0.181454,-0.395284,9.202765,0.035886,0.021484,0.285333
04667,8635339,0.177774,-0.348841,9.134885,0.031727,0.030018,0.285531
04668,8635364,0.144318,-0.267856,9.115136,0.019809,0.031183,0.282782
04669,8635389,0.136247,-0.357750,9.032858,0.014659,0.033798,0.286371
04670,8635414,0.160077,-0.301177,9.001573,-0.001848,0.043187,0.285552
04671,8635439,0.098433,-0.349059,9.015271,-0.019318,0.042760,0.283996
04672,8635464,0.168351,-0.483219,9.026995,-0.029916,0.043670,0.283449
04673,8635489,0.229054,-0.492149,9.083839,-0.033377,0.058027,0.277438
04674,8635514,0.162038,-0.505322,9.236983,-0.050223,0.057956,0.285975
04675,8635539,0.150289,-0.663195,9.261597,-0.055937,0.060872,0.284135
04676,8635564,0.109287,-0.667759,9.360298,-0.057475,0.061544,0.284392
04677,8635589,0.137507,-0.656173,9.384377,-0.062712,0.064785,0.280837
04678,8635614,0.144187,-0.684927,9.454854,-0.060001,0.064883,0.284704
04679,8635639,0.089740,-0.610370,9.555036,-0.064747,0.069916,0.281199
04680,8635664,0.064457,-0.691089,9.588312,-0.062454,0.068150,0.282768
04681,8635689,0.037086,-0.648857,9.655430,-0.060208,0.064898,0.284288
04682,8635714,0.032680,-0.559422,9.721766,-0.057602,0.062498,0.288194
04683,8635739,0.034999,-0.544382,9.846492,-0.045483,0.061490,0.290567
04684,8635764,0.021460,-0.522137,9.895205,-0.039847,0.061464,0.292883
04685,8635789,0.033584,-0.408247,9.869590,-0.024326,0.063711,0.299194
04686,8635814,-0.042433,-0.294892,9.870638,-0.018081,0.061888,0.306445
04687,8635839,-0.072713,-0.186815,9.792678,-0.009269,0.054077,0.310621
04688,8635864,-0.054497,-0.062069,9.762855,-0.002398,0.060127,0.310840
04689,8635889,-0.060018,0.038528,9.707089,0.005832,0.054964,0.318671
04690,8635914,-0.070388,0.102473,9.669940,0.019392,0.053323,0.323177
04691,8635939,-0.072725,0.250911,9.701337,0.017118,0.058287,0.328971
04692,8635964,-0.104544,0.275280,9.675225,0.022166,0.058577,0.333022
04693,8635989,-0.117886,0.320143,9.664993,0.026890,0.057756,0.345213
04694,8636014,-0.095604,0.352169,9.625770,0.036257,0.056165,0.347192
04695,8636039,-0.078866,0.374831,9.614875,0.033937,0.059006,0.350279
04696,8636064,-0.045757,0.353351,9.532621,0.039580,0.063599,0.355639
04697,8636089,-0.048079,0.360500,9.492089,0.041299,0.069028,0.359508
04698,8636114,-0.093613,0.342941,9.489774,0.038611,0.070288,0.364775
04699,8636139,-0.074312,0.273244,9.482317,0.036696,0.070614,0.367261
04700,8636164,-0.068310,0.284983,9.593658,0.037261,0.076907,0.371975
04701,8636189,-0.090303,0.157152,9.671291,0.036847,0.076175,0.371657
04702,8636214,-0.086079,0.101104,9.809767,0.038763,0.080515,0.374296
04703,8636239,-0.032705,0.056752,9.892982,0.043815,0.082653,0.375617
04704,8636264,-0.000429,0.014845,9.957432,0.051051,0.086748,0.378334
04705,8636289,0.021340,0.008351,9.968307,0.060693,0.092014,0.383914
04706,8636314,0.032293,0.018792,10.046604,0.069992,0.094768,0.381771
04707,8636339,0.014721,0.065533,10.050197,0.077779,0.100269,0.381178
04708,8636364,0.042353,0.066979,10.040592,0.085808,0.104318,0.385686
04709,8636389,0.002013,0.071846,10.038010,0.092179,0.106459,0.387900
04710,8636414,-0.003736,0.179339,10.063840,0.098480,0.108748,0.392222
04711,8636439,-0.006659,0.252383,10.035577,0.101879,0.103606,0.393858
04712,8636464,-0.053975,0.339429,10.091611,0.105021,0.109362,0.394104
04713,8636489,-0.063420,0.393349,10.117253,0.112986,0.105979,0.398058
04714,8636514,-0.053808,0.467207,10.140244,0.124083,0.110295,0.400204
04715,8636539,-0.118739,0.611302,10.222442,0.125698,0.108676,0.406078
04716,8636564,-0.158451,0.656487,10.261095,0.133274,0.109567,0.407984
04717,8636589,-0.213258,0.769127,10.310318,0.142302,0.107998,0.414329
04718,8636614,-0.252917,0.797279,10.339012,0.145323,0.102594,0.419309
04719,8636639,-0.265755,0.867865,10.427137,0.150090,0.096261,0.419272
04720,8636664,-0.304670,0.854910,10.527197,0.155210,0.088913,0.430655
04721,8636689,-0.248889,0.843748,10.666412,0.162277,0.084465,0.431613
04722,8636714,-0.316046,0.731047,10.662159,0.166629,0.076097,0.434310
04723,8636739,-0.231977,0.696060,10.646624,0.173054,0.074612,0.434632
04724,8636764,-0.228527,0.723480,10.679136,0.177939,0.069482,0.443523
04725,8636789,-0.182533,0.562938,10.631084,0.181421,0.069930,0.441829
04726,8636087,NaN,NaN,NaN,NaN,NaN,NaN
04727,8636814,-0.157730,0.513100,10.590970,0.184161,0.069667,0.447767
04728,8636839,-0.080796,0.364554,10.468698,0.192399,0.073547,0.448144
04729,8636864,-0.228494,0.462406,10.548130,0.186836,0.069720,0.448997
04730,8636889,-0.147738,0.191170,10.532206,0.177089,0.065228,0.448421
04731,8636914,0.039732,0.016479,10.315108,0.194345,0.066289,0.445671
04732,8636939,-0.339045,0.208409,10.528228,0.185504,0.062338,0.445090
04733,8636964,-0.091065,-0.166764,10.491238,0.191426,0.057437,0.446232
04734,8636989,0.018098,0.045791,10.668769,0.200287,0.062496,0.443514
04735,8637014,-0.146735,0.012535,10.609112,0.193026,0.062516,0.441705
04736,8637039,-0.130129,-0.220240,10.619546,0.209150,0.057200,0.442071
04737,8637064,-0.096478,0.080103,10.698482,0.214908,0.050583,0.441682
04738,8637089,-0.002896,0.040123,10.532798,0.216986,0.045890,0.442456
04739,8637114,-0.071684,0.069503,10.513998,0.229538,0.042071,0.442805
04740,8637139,-0.067779,0.215725,10.528618,0.232931,0.039598,0.444955
04741,8637164,-0.089680,0.299953,10.563140,0.232673,0.033209,0.445136
04742,8637189,-0.120365,0.216200,10.514813,0.234490,0.026249,0.445119
04743,8637214,-0.158146,0.246700,10.414092,0.246606,0.021727,0.446602
04744,8637239,-0.175626,0.398775,10.484523,0.245052,0.013920,0.450500
04745,8637264,-0.191929,0.366864,10.502033,0.248601,0.006688,0.449779
04746,8637289,-0.217930,0.464793,10.554644,0.254150,-0.002448,0.453853
04747,8637314,-0.219633,0.454800,10.563135,0.257237,-0.009340,0.453164
04748,8637339,-0.211044,0.461199,10.577103,0.263391,-0.018521,0.453161
04749,8637364,-0.221738,0.630777,10.631071,0.267982,-0.024344,0.457919
04750,8637389,-0.230961,0.649872,10.532055,0.264534,-0.031364,0.456382
04751,8637414,-0.272869,0.701943,10.507367,0.263257,-0.038353,0.461114
04752,8637439,-0.208686,0.733471,10.507435,0.254025,-0.046057,0.461400
04753,8637464,-0.196474,0.677991,10.419432,0.249330,-0.049071,0.465394
04754,8637489,-0.273461,0.687528,10.398198,0.244536,-0.055872,0.465862
04755,8637514,-0.286137,0.735591,10.523418,0.231860,-0.070018,0.465477
04756,8637539,-0.232067,0.497948,10.475811,0.214379,-0.075120,0.467163
04757,8637564,-0.225024,0.425248,10.461219,0.207236,-0.077397,0.466933
04758,8637589,-0.222697,0.386727,10.432936,0.195619,-0.085869,0.468674
04759,8637614,-0.156172,0.262278,10.397438,0.186984,-0.088644,0.463638
04760,8637639,-0.172181,0.220150,10.446046,0.172593,-0.098337,0.466958
04761,8637664,-0.154939,0.056767,10.438308,0.159330,-0.104232,0.461114
04762,8637689,-0.148677,-0.074114,10.420166,0.151692,-0.107670,0.456769
04763,8637714,-0.111945,-0.085601,10.475452,0.143685,-0.108865,0.457805
04764,8637739,-0.104682,-0.144217,10.500782,0.137294,-0.117707,0.454222
04765,8637764,-0.125619,-0.210783,10.476620,0.133168,-0.120436,0.449290
04766,8637789,-0.143726,-0.237726,10.461128,0.125205,-0.124526,0.446399
04767,8637814,-0.085476,-0.302529,10.334864,0.125501,-0.132760,0.443760
04768,8637839,-0.117078,-0.301177,10.273284,0.120669,-0.134385,0.440577
04769,8637864,-0.137264,-0.340765,10.223631,0.119575,-0.139233,0.439688
04770,8637889,-0.146082,-0.381032,10.134090,0.122400,-0.142133,0.430995
04771,8637914,-0.160539,-0.347022,10.089169,0.121365,-0.144327,0.428293
04772,8637939,-0.174278,-0.354581,9.982865,0.125926,-0.149289,0.423894
04773,8637964,-0.152223,-0.335960,9.883271,0.124330,-0.154015,0.424353
04774,8637989,-0.140509,-0.322999,9.791167,0.127252,-0.153431,0.419236
04775,8638014,-0.131707,-0.324144,9.726247,0.132433,-0.156611,0.413180
04776,8638039,-0.117502,-0.284019,9.704422,0.131410,-0.160626,0.407871
04777,8638064,-0.109955,-0.243754,9.710065,0.131359,-0.161763,0.403485
04778,8638089,-0.078050,-0.223621,9.694965,0.135721,-0.165333,0.399952
04779,8638114,-0.087839,-0.115497,9.681526,0.137649,-0.169812,0.395089
04780,8638139,-0.010302,-0.117451,9.643387,0.137495,-0.172772,0.394700
04781,8638164,-0.024916,-0.054879,9.590378,0.126632,-0.171196,0.386774
04782,8638189,-0.006815,-0.046218,9.506044,0.121031,-0.178823,0.385404
04783,8638214,0.087887,-0.088960,9.464662,0.113834,-0.181448,0.379483
04784,8638239,0.146303,-0.096987,9.439020,0.108980,-0.178480,0.377908
04785,8638264,0.176711,-0.155934,9.368565,0.097838,-0.184974,0.371803
04786,8638289,0.250889,-0.183281,9.318840,0.092994,-0.183372,0.367441
04787,8638314,0.213276,-0.173398,9.331411,0.082227,-0.179470,0.366402
04788,8638339,0.260589,-0.250124,9.295903,0.069777,-0.181928,0.364121
04789,8638364,0.294145,-0.317791,9.253724,0.062651,-0.177923,0.359663
04790,8638389,0.279363,-0.310218,9.221156,0.053237,-0.174074,0.358223
04791,8638414,0.295023,-0.380736,9.151943,0.048546,-0.171511,0.357962
04792,8638439,0.289362,-0.370087,9.052045,0.041725,-0.167790,0.354929
04793,8638464,0.277478,-0.369518,8.981398,0.028426,-0.168000,0.352141
04794,8638489,0.298069,-0.412038,8.885428,0.020022,-0.164178,0.350995
04795,8638514,0.303460,-0.483030,8.755108,0.014866,-0.158913,0.352418
04796,8638539,0.287126,-0.560950,8.682080,0.005021,-0.154160,0.348150
04797,8638564,0.267558,-0.569573,8.631462,-0.003912,-0.151487,0.346630
04798,8638589,0.240421,-0.622582,8.609699,-0.005822,-0.146841,0.346353
04799,8638614,0.217879,-0.620589,8.633369,-0.018744,-0.144987,0.342230
04800,8638639,0.164246,-0.675255,8.621690,-0.025019,-0.141634,0.340918
04801,8638664,0.106203,-0.763620,8.617640,-0.030264,-0.141570,0.337165
04802,8638689,0.092670,-0.800731,8.637328,-0.036347,-0.141394,0.337415
04803,8638714,0.039037,-0.785832,8.678485,-0.040653,-0.138927,0.337035
04804,8638739,0.019219,-0.834140,8.717226,-0.043862,-0.141080,0.329163
04805,8638764,0.027494,-0.825682,8.788753,-0.041528,-0.143996,0.327317
04806,8638789,0.052072,-0.835915,8.877629,-0.042878,-0.144552,0.324302
04807,8638814,0.075169,-0.841300,8.936534,-0.045763,-0.147028,0.319173
04808,8638839,0.114679,-0.821222,9.007200,-0.041646,-0.143297,0.318397
04809,8638864,0.097333,-0.817673,9.068814,-0.038046,-0.146949,0.313320
04810,8638889,0.119268,-0.729311,9.120010,-0.030565,-0.142667,0.307941
04811,8638914,0.107928,-0.599065,9.196886,-0.026724,-0.144017,0.306437
04812,8638939,0.153495,-0.579366,9.188607,-0.024833,-0.143741,0.302359
04813,8638964,0.128573,-0.391858,9.272682,-0.026105,-0.149976,0.299772
04814,8638989,0.207154,-0.353273,9.165524,-0.023159,-0.150159,0.297556
04815,8639014,0.223723,-0.240928,9.153772,-0.022514,-0.144574,0.296805
04816,8639039,0.187985,-0.172282,9.209067,-0.029333,-0.149794,0.294738
04817,8639064,0.229695,-0.111499,9.253955,-0.031050,-0.152208,0.295161
04818,8639089,0.282530,-0.105652,9.235514,-0.039446,-0.152338,0.289909
04819,8639114,0.230717,-0.134297,9.205148,-0.042056,-0.151317,0.291932
04820,8639139,0.302547,-0.110368,9.191714,-0.042690,-0.148214,0.290997
04821,8639164,0.256358,-0.058953,9.206578,-0.053355,-0.147741,0.293051
04822,8639189,0.296987,-0.110762,9.140954,-0.056712,-0.146513,0.291129
04823,8639214,0.274893,-0.092028,9.121027,-0.062193,-0.146905,0.292590
04824,8639239,0.267676,-0.101001,9.086339,-0.065590,-0.139986,0.289548
04825,8638587,NaN,NaN,NaN,NaN,NaN,NaN
04826,8639264,0.265993,-0.132748,9.044279,-0.065096,-0.142445,0.288188
04827,8639289,0.230658,-0.080223,9.065962,-0.070167,-0.140277,0.285944
04828,8639314,0.203444,-0.126096,8.997512,-0.075898,-0.139791,0.286540
04829,8639339,0.184284,-0.141221,8.997300,-0.077313,-0.136878,0.287014
04830,8639364,0.162468,-0.171075,9.041742,-0.077991,-0.137080,0.289852
04831,8639389,0.174111,-0.258757,9.046688,-0.085384,-0.136158,0.283780
04832,8639414,0.146554,-0.328304,9.080305,-0.081748,-0.131823,0.281004
04833,8639439,0.092141,-0.364039,9.114618,-0.082751,-0.134076,0.284084
04834,8639464,0.085111,-0.377589,9.132597,-0.079405,-0.125983,0.278535
04835,8639489,0.047549,-0.394126,9.131791,-0.077589,-0.129765,0.279132
04836,8639514,0.026447,-0.389518,9.154638,-0.073341,-0.126912,0.276744
04837,8639539,0.014467,-0.381552,9.197269,-0.075206,-0.129087,0.272890
04838,8639564,-0.055804,-0.370836,9.176132,-0.076480,-0.125937,0.267573
04839,8639589,0.086500,-0.329762,9.250594,-0.080460,-0.127171,0.267311
04840,8639614,0.068219,-0.447513,9.247537,-0.074534,-0.122681,0.262878
04841,8639639,-0.017286,-0.381270,9.218137,-0.072131,-0.126599,0.261892
04842,8639664,0.053216,-0.315937,9.243523,-0.073580,-0.126451,0.256466
04843,8639689,0.042979,-0.348045,9.174763,-0.069614,-0.125332,0.254189
04844,8639714,0.040970,-0.246059,9.157559,-0.068583,-0.122216,0.252796
04845,8639739,0.048747,-0.227716,9.113259,-0.076284,-0.122629,0.252867
04846,8639764,0.058036,-0.284156,9.024250,-0.079548,-0.118162,0.249078
04847,8639789,0.051049,-0.182207,9.015582,-0.081752,-0.119576,0.248470
04848,8639814,0.126249,-0.131817,9.011164,-0.089264,-0.118442,0.248698
04849,8639839,0.132266,-0.251063,8.923696,-0.095475,-0.115025,0.243074
04850,8639864,0.103049,-0.137981,8.873169,-0.101127,-0.113784,0.240303
04851,8639889,0.150152,-0.120513,8.825242,-0.107652,-0.108744,0.238522
04852,8639914,0.187147,-0.179919,8.797572,-0.110570,-0.105748,0.239984
04853,8639939,0.202449,-0.179388,8.709428,-0.117496,-0.097404,0.230385
04854,8639964,0.166893,-0.167952,8.738925,-0.125246,-0.096138,0.232106
04855,8639989,0.179088,-0.227212,8.632937,-0.129956,-0.091086,0.230616
04856,8640014,0.250058,-0.188390,8.635770,-0.140654,-0.089328,0.228370
04857,8640039,0.172314,-0.218397,8.679452,-0.147755,-0.081061,0.219990
04858,8640064,0.195075,-0.316073,8.651725,-0.151697,-0.083071,0.220949
04859,8640089,0.181899,-0.337814,8.677731,-0.158113,-0.081685,0.213289
04860,8640114,0.126609,-0.380027,8.710820,-0.162186,-0.077946,0.213962
04861,8640139,0.118037,-0.438514,8.728379,-0.164604,-0.075582,0.208389
04862,8640164,0.063674,-0.504480,8.750257,-0.165156,-0.076485,0.204430
04863,8640189,0.047921,-0.527684,8.804323,-0.171483,-0.075053,0.205617
04864,8640214,-0.004063,-0.610735,8.823738,-0.175373,-0.071472,0.203220
04865,8640239,-0.026067,-0.686064,8.834310,-0.174586,-0.075011,0.196680
04866,8640264,-0.049449,-0.726273,8.901277,-0.172701,-0.073476,0.193083
04867,8640289,-0.125002,-0.735428,8.938141,-0.173546,-0.071335,0.191856
04868,8640314,-0.128749,-0.801225,8.905776,-0.171408,-0.074066,0.183497
04869,8640339,-0.131944,-0.780844,8.887998,-0.167850,-0.075506,0.178779
04870,8640364,-0.175451,-0.656652,8.900233,-0.170501,-0.074990,0.172292
04871,8640389,-0.128599,-0.754147,8.937255,-0.173651,-0.076404,0.167576
04872,8640414,-0.159083,-0.745032,8.979894,-0.168394,-0.076309,0.163025
04873,8640439,-0.176283,-0.682629,9.002007,-0.171562,-0.073662,0.156546
04874,8640464,-0.112031,-0.792760,9.022054,-0.170490,-0.072487,0.149515
04875,8640489,-0.129282,-0.728304,9.025317,-0.163317,-0.067763,0.144973
04876,8640514,-0.141536,-0.670524,8.975952,-0.165461,-0.067168,0.144023
04877,8640539,-0.142136,-0.671225,8.978047,-0.168234,-0.063804,0.132937
04878,8640564,-0.121394,-0.595802,8.962730,-0.167236,-0.058426,0.131432
04879,8640589,-0.140952,-0.531545,8.960907,-0.171547,-0.058872,0.129848
04880,8640614,-0.112118,-0.586739,8.872797,-0.170569,-0.056267,0.121533
04881,8640639,-0.088087,-0.499487,8.883802,-0.175096,-0.052604,0.120229
04882,8640664,-0.117186,-0.483965,8.891387,-0.177328,-0.048779,0.114208
04883,8640689,-0.048893,-0.541754,8.861990,-0.187427,-0.041689,0.109715
04884,8640714,-0.057418,-0.497530,8.892113,-0.187157,-0.035383,0.107353
04885,8640739,-0.095736,-0.535811,8.898306,-0.184491,-0.033233,0.106018
04886,8640764,-0.015820,-0.467206,8.933174,-0.185990,-0.027585,0.100773
04887,8640789,-0.078230,-0.473686,8.937085,-0.184099,-0.021984,0.101026
04888,8640814,-0.118298,-0.463614,8.952487,-0.189579,-0.016181,0.097846
04889,8640839,-0.120083,-0.451945,9.058421,-0.186436,-0.016108,0.097517
04890,8640864,-0.153125,-0.444956,9.125727,-0.187199,-0.011805,0.093483
04891,8640889,-0.132160,-0.479332,9.196697,-0.185159,-0.010626,0.092243
04892,8640914,-0.137552,-0.424600,9.310650,-0.183710,-0.005399,0.089910
04893,8640939,-0.176960,-0.463085,9.362641,-0.181434,-0.004055,0.091947
04894,8640964,-0.200377,-0.479659,9.443036,-0.174226,0.000568,0.085212
04895,8640989,-0.207431,-0.496708,9.468137,-0.171912,0.006232,0.083985
04896,8641014,-0.243838,-0.496466,9.517899,-0.163065,0.010275,0.084247
04897,8641039,-0.301650,-0.392730,9.584343,-0.162399,0.010822,0.082397
04898,8641064,-0.239234,-0.524040,9.520932,-0.150052,0.005693,0.086165
04899,8641089,-0.339941,-0.434412,9.598050,-0.147213,0.014370,0.085545
04900,8641114,-0.358378,-0.520207,9.546421,-0.141193,0.012267,0.085656
04901,8641139,-0.304333,-0.472962,9.569182,-0.131151,0.011153,0.083289
04902,8641164,-0.374159,-0.380416,9.639505,-0.129381,0.013369,0.081692
04903,8641189,-0.370221,-0.525805,9.572135,-0.118323,0.016014,0.078697
04904,8641214,-0.359066,-0.568447,9.480826,-0.106408,0.009987,0.079457
04905,8641239,-0.450698,-0.285287,9.589821,-0.100692,0.010899,0.077524
04906,8641264,-0.371139,-0.455002,9.629548,-0.096534,0.009533,0.079788
04907,8641289,-0.274366,-0.258668,9.629649,-0.080152,0.011178,0.080519
04908,8641314,-0.400738,-0.159468,9.801701,-0.088243,0.006724,0.084796
04909,8641339,-0.241913,-0.525417,9.591842,-0.068851,0.008593,0.082266
04910,8641364,-0.271569,-0.118245,9.786261,-0.063850,0.003728,0.084115
04911,8641389,-0.377926,-0.239887,9.904864,-0.068033,0.002445,0.086903
04912,8641414,-0.286443,-0.310962,9.860233,-0.050253,0.001746,0.085881
04913,8641439,-0.287715,-0.223605,9.811743,-0.044823,0.008882,0.091476
04914,8641464,-0.445541,-0.264982,9.717857,-0.033842,0.002120,0.090184
04915,8641489,-0.327934,-0.207831,9.667200,-0.026979,-0.002879,0.093650
04916,8641514,-0.301328,-0.142717,9.702438,-0.026414,0.003823,0.092135
04917,8641539,-0.444412,-0.289191,9.733885,-0.021066,-0.002812,0.095043
04918,8641564,-0.381771,-0.291028,9.655025,-0.007080,-0.009598,0.099060
04919,8641589,-0.420515,0.000369,9.825258,-0.005388,-0.008398,0.102847
04920,8641614,-0.418426,-0.122287,9.738209,-0.006552,-0.005139,0.103763
04921,8641639,-0.371739,-0.084208,9.764796,0.000080,-0.010957,0.104160
04922,8641664,-0.424038,-0.094405,9.779554,0.001853,-0.009903,0.108796
04923,8641689,-0.408242,-0.137587,9.820542,0.011221,-0.013354,0.111771
04924,8641714,-0.432349,-0.050659,9.832008,0.014935,-0.012194,0.111376
04925,8641739,-0.504612,-0.055274,9.802662,0.016864,-0.014313,0.112130
04926,8641764,-0.543625,-0.010876,9.731902,0.020599,-0.019157,0.115823
04927,8641087,NaN,NaN,NaN,NaN,NaN,NaN
04928,8641789,-0.493213,0.002861,9.703626,0.025342,-0.021873,0.120603
04929,8641814,-0.527564,0.009916,9.737123,0.032356,-0.020148,0.123013
04930,8641839,-0.548191,0.005796,9.752385,0.032201,-0.023815,0.126887
04931,8641864,-0.541071,0.008452,9.766696,0.038932,-0.032809,0.126208
04932,8641889,-0.567113,0.008176,9.783052,0.044923,-0.032203,0.130852
04933,8641914,-0.515501,-0.043066,9.712386,0.053363,-0.032607,0.130022
04934,8641939,-0.469950,0.006476,9.725923,0.057354,-0.032984,0.137814
04935,8641964,-0.462020,-0.004158,9.722538,0.065245,-0.032359,0.137588
04936,8641989,-0.452170,0.006513,9.701819,0.070550,-0.034519,0.138877
04937,8642014,-0.456900,0.070496,9.707654,0.071532,-0.032856,0.141890
04938,8642039,-0.447650,0.076730,9.658807,0.072934,-0.042720,0.143535
04939,8642064,-0.437116,0.121445,9.669291,0.073843,-0.039688,0.145664
04940,8642089,-0.405641,0.136682,9.627591,0.070601,-0.043815,0.151039
04941,8642114,-0.406032,0.153873,9.591302,0.066810,-0.042821,0.154562
04942,8642139,-0.421960,0.175593,9.625469,0.066081,-0.046097,0.160437
04943,8642164,-0.393133,0.166485,9.621084,0.062550,-0.050399,0.160769
04944,8642189,-0.394178,0.197036,9.609948,0.051235,-0.046162,0.167634
04945,8642214,-0.379216,0.199512,9.574569,0.051235,-0.053249,0.172704
04946,8642239,-0.359239,0.190778,9.541166,0.044968,-0.051324,0.176495
04947,8642264,-0.383434,0.236177,9.519518,0.038820,-0.050864,0.179548
04948,8642289,-0.365199,0.222795,9.442679,0.028557,-0.053051,0.185893
04949,8642314,-0.359960,0.257545,9.426515,0.025634,-0.055948,0.188430
04950,8642339,-0.382192,0.232069,9.379030,0.015760,-0.061680,0.196332
04951,8642364,-0.379038,0.176157,9.350421,0.011402,-0.059508,0.198799
04952,8642389,-0.371739,0.179582,9.351234,0.006565,-0.063704,0.203841
04953,8642414,-0.413091,0.174683,9.359679,-0.001684,-0.062743,0.210982
04954,8642439,-0.452589,0.100840,9.346332,-0.009401,-0.065127,0.216942
04955,8642464,-0.438076,0.096042,9.333674,-0.011580,-0.068843,0.216538
04956,8642489,-0.440802,0.108861,9.315100,-0.010847,-0.067852,0.227021
04957,8642514,-0.455141,0.098584,9.279914,-0.017594,-0.071609,0.228842
04958,8642539,-0.429882,0.106053,9.236903,-0.020772,-0.074650,0.233113
04959,8642564,-0.431920,0.137627,9.234333,-0.024690,-0.081074,0.239304
04960,8642589,-0.440118,0.114945,9.205816,-0.027886,-0.075938,0.241857
04961,8642614,-0.399295,0.114864,9.176657,-0.032213,-0.080732,0.250223
04962,8642639,-0.406481,0.122813,9.144114,-0.042261,-0.077826,0.253215
04963,8642664,-0.369082,0.052356,9.095064,-0.046036,-0.077367,0.254033
04964,8642689,-0.349087,0.046152,9.093513,-0.052357,-0.078836,0.256322
04965,8642714,-0.330115,-0.011103,9.060172,-0.057375,-0.069697,0.262319
04966,8642739,-0.269779,-0.044807,9.028956,-0.061476,-0.070260,0.264291
04967,8642764,-0.255627,-0.075314,9.010522,-0.064515,-0.068311,0.267004
04968,8642789,-0.223939,-0.075237,8.963240,-0.067694,-0.066707,0.267845
04969,8642814,-0.208458,-0.074360,8.951079,-0.067852,-0.067510,0.270800
04970,8642839,-0.199336,-0.057419,8.950317,-0.075099,-0.068305,0.276371
04971,8642864,-0.137377,-0.057081,8.971912,-0.074682,-0.065483,0.275900
04972,8642889,-0.092560,-0.052571,8.999994,-0.081339,-0.066799,0.282528
04973,8642914,-0.030430,-0.075539,9.026379,-0.084126,-0.065030,0.283169
04974,8642939,0.045881,-0.099662,9.080801,-0.089179,-0.062780,0.288609
04975,8642964,0.095648,-0.142547,9.121539,-0.086568,-0.058410,0.288967
04976,8642989,0.153815,-0.181370,9.161300,-0.085130,-0.054562,0.289982
04977,8643014,0.138933,-0.167563,9.228393,-0.084689,-0.053406,0.293533
04978,8643039,0.206213,-0.171441,9.214250,-0.081991,-0.055544,0.292221
04979,8643064,0.264208,-0.173696,9.232177,-0.078909,-0.050427,0.298072
04980,8643089,0.272899,-0.157310,9.212532,-0.084516,-0.048971,0.297608
04981,8643114,0.321441,-0.138888,9.188215,-0.079542,-0.044365,0.300177
04982,8643139,0.340569,-0.127696,9.182542,-0.077973,-0.042626,0.303102
04983,8643164,0.351744,-0.102381,9.198210,-0.079969,-0.036997,0.303746
04984,8643189,0.309835,-0.084229,9.207609,-0.078462,-0.032602,0.304096
04985,8643214,0.331182,-0.062933,9.180431,-0.079578,-0.032756,0.306518
04986,8643239,0.307230,-0.039170,9.208427,-0.080554,-0.026478,0.312627
04987,8643264,0.300606,-0.018256,9.262576,-0.084068,-0.019835,0.310943
04988,8643289,0.320120,-0.070683,9.267794,-0.087403,-0.014313,0.309152
04989,8643314,0.295378,-0.045070,9.303299,-0.085105,-0.009833,0.314396
04990,8643339,0.307605,-0.049584,9.288093,-0.087437,0.004733,0.316537
04991,8643364,0.273211,-0.039866,9.274720,-0.087495,0.010402,0.319225
04992,8643389,0.255566,0.011632,9.271080,-0.092231,0.016422,0.319035
04993,8643414,0.238893,-0.018999,9.237463,-0.090541,0.028484,0.322802
04994,8643439,0.185600,0.033538,9.257662,-0.095080,0.030800,0.323888
04995,8643464,0.187269,0.028899,9.233178,-0.100595,0.041064,0.324389
04996,8643489,0.157972,0.040818,9.264841,-0.103478,0.045057,0.325810
04997,8643514,0.127960,0.051937,9.309594,-0.107235,0.053059,0.333444
04998,8643539,0.095418,0.023620,9.328614,-0.111631,0.057899,0.336266
04999,8643564,0.085823,0.012679,9.333692,-0.109690,0.070659,0.339266
05000,8643589,0.052135,0.000786,9.324317,-0.110640,0.074289,0.340865
05001,8643614,0.041708,-0.042113,9.345148,-0.111428,0.079338,0.345833
05002,8643639,0.047716,-0.100335,9.373323,-0.106789,0.083058,0.349718
05003,8643664,0.052495,-0.115899,9.433188,-0.107500,0.087067,0.355942
05004,8643689,0.031244,-0.160602,9.474928,-0.105792,0.091671,0.359660
05005,8643714,0.059843,-0.233243,9.520079,-0.103694,0.097262,0.367307
05006,8643739,0.045734,-0.237832,9.591556,-0.098436,0.095876,0.367557
05007,8643764,0.084402,-0.267311,9.675721,-0.093001,0.099976,0.371408
05008,8643789,0.082692,-0.325696,9.749601,-0.090039,0.098249,0.377443
05009,8643814,0.088494,-0.331097,9.822560,-0.082400,0.100297,0.383767
05010,8643839,0.096875,-0.410494,9.822222,-0.078429,0.101893,0.386880
05011,8643864,0.109807,-0.418320,9.855125,-0.078078,0.104048,0.392602
05012,8643889,0.136521,-0.448543,9.879782,-0.070244,0.101469,0.398388
05013,8643914,0.157795,-0.521325,9.848906,-0.065066,0.101923,0.401109
05014,8643939,0.169116,-0.523930,9.798794,-0.061554,0.102515,0.403947
05015,8643964,0.172463,-0.430312,9.797443,-0.062124,0.105677,0.404104
05016,8643989,0.157074,-0.373887,9.756605,-0.059681,0.103157,0.412961
05017,8644014,0.186013,-0.326528,9.706255,-0.065845,0.098116,0.416248
05018,8644039,0.195333,-0.223601,9.700256,-0.073101,0.104601,0.422175
05019,8644064,0.189076,-0.176992,9.645087,-0.079839,0.100190,0.424809
05020,8644089,0.221211,-0.107864,9.620945,-0.087471,0.099724,0.431239
05021,8644114,0.204293,-0.042923,9.653660,-0.099984,0.099488,0.438231
05022,8644139,0.227278,-0.031806,9.670616,-0.113961,0.101680,0.440405
05023,8644164,0.228638,-0.030930,9.715701,-0.127445,0.103081,0.448880
05024,8644189,0.217175,-0.046209,9.752319,-0.134926,0.105505,0.451600
05025,8644214,0.196154,-0.102693,9.788259,-0.147215,0.107691,0.456715
05026,8644239,0.183039,-0.141396,9.823032,-0.159456,0.103652,0.461530
05027,8644264,0.142049,-0.178566,9.841995,-0.170740,0.105987,0.465605
05028,8643587,NaN,NaN,NaN,NaN,NaN,NaN
05029,8644289,0.120457,-0.246589,9.865054,-0.179178,0.101631,0.473418
05030,8644314,0.111888,-0.277587,9.910463,-0.186710,0.106224,0.476364
05031,8644339,0.075789,-0.340944,9.978223,-0.191727,0.102461,0.481368
05032,8644364,0.074338,-0.414879,10.038068,-0.198278,0.097860,0.485680
05033,8644389,0.094231,-0.471721,10.115638,-0.197907,0.097109,0.493249
05034,8644414,0.069457,-0.503362,10.200671,-0.197628,0.092921,0.497099
05035,8644439,0.082879,-0.571898,10.270300,-0.193042,0.088909,0.499647
05036,8644464,0.102802,-0.559143,10.348323,-0.183243,0.089286,0.504344
05037,8644489,0.091299,-0.576993,10.410835,-0.176591,0.082988,0.508112
05038,8644514,0.099206,-0.600605,10.446914,-0.161608,0.078341,0.512581
05039,8644539,0.126282,-0.562657,10.461237,-0.149718,0.073319,0.514976
05040,8644564,0.132996,-0.508008,10.477210,-0.130680,0.070990,0.517912
05041,8644589,0.116188,-0.468303,10.471212,-0.121731,0.070766,0.525466
05042,8644614,0.148426,-0.498157,10.398028,-0.101063,0.067519,0.527979
05043,8644639,0.176026,-0.444356,10.397592,-0.083870,0.063445,0.531269
05044,8644664,0.183797,-0.470038,10.371132,-0.072919,0.060416,0.534294
05045,8644689,0.235615,-0.525752,10.326059,-0.051802,0.058962,0.533102
05046,8644714,0.248026,-0.449174,10.329483,-0.038311,0.061799,0.534321
05047,8644739,0.207067,-0.419879,10.291482,-0.026217,0.055870,0.537629
05048,8644764,0.324965,-0.563851,10.260315,-0.012027,0.067148,0.536967
05049,8644789,0.293253,-0.505281,10.230594,0.004182,0.072493,0.536447
05050,8644814,0.296979,-0.505033,10.174909,0.014562,0.077919,0.536916
05051,8644839,0.353327,-0.607112,10.128584,0.031666,0.085405,0.535765
05052,8644864,0.311826,-0.493300,10.105005,0.042009,0.094830,0.534872
05053,8644889,0.324119,-0.514934,10.041424,0.042164,0.100791,0.532884
05054,8644914,0.327990,-0.581677,10.038172,0.053044,0.105985,0.534881
05055,8644939,0.265110,-0.499275,10.051252,0.055444,0.115263,0.524204
05056,8644964,0.266513,-0.584650,10.019124,0.057746,0.123104,0.521234
05057,8644989,0.261405,-0.592786,10.022512,0.058798,0.128830,0.519832
05058,8645014,0.240528,-0.614512,10.049650,0.064608,0.140192,0.516737
05059,8645039,0.253550,-0.637701,10.040264,0.069641,0.139356,0.507460
05060,8645064,0.240610,-0.695299,10.028463,0.063594,0.151508,0.504801
05061,8645089,0.274240,-0.722882,10.043140,0.067180,0.156725,0.501088
05062,8645114,0.261796,-0.777239,10.044119,0.064697,0.162100,0.493737
05063,8645139,0.268117,-0.825689,10.011038,0.066597,0.175887,0.486023
05064,8645164,0.238131,-0.825683,10.000735,0.067455,0.181652,0.480343
05065,8645189,0.232313,-0.858271,9.999400,0.065482,0.186523,0.473332
05066,8645214,0.179473,-0.890920,10.010745,0.069744,0.189146,0.472491
05067,8645239,0.147288,-0.924959,10.022419,0.066703,0.189929,0.463297
05068,8645264,0.103532,-0.956543,10.044659,0.068732,0.196632,0.458535
05069,8645289,0.039374,-0.955474,10.051200,0.069279,0.196984,0.453419
05070,8645314,0.051248,-0.993502,10.063056,0.069696,0.193342,0.450563
05071,8645339,0.010827,-1.031725,10.095851,0.065383,0.196727,0.438862
05072,8645364,0.012938,-1.067664,10.141494,0.070070,0.187708,0.438046
05073,8645389,0.006102,-1.115604,10.230198,0.077143,0.187554,0.434823
05074,8645414,-0.015296,-1.142945,10.256587,0.076463,0.185693,0.428826
05075,8645439,0.018265,-1.162425,10.254697,0.081476,0.178581,0.424933
05076,8645464,-0.020067,-1.169349,10.263078,0.079107,0.178251,0.419558
05077,8645489,0.001577,-1.199221,10.188296,0.080673,0.171781,0.415034
05078,8645514,0.035406,-1.160305,10.094956,0.079557,0.164061,0.412727
05079,8645539,0.040394,-1.129636,10.014818,0.077180,0.161160,0.406931
05080,8645564,0.079160,-1.158943,9.901619,0.071471,0.154426,0.404727
05081,8645589,0.124288,-1.121875,9.860893,0.065362,0.151633,0.400545
05082,8645614,0.140552,-1.126451,9.794441,0.060690,0.139476,0.392643
05083,8645639,0.202010,-1.151310,9.731069,0.052311,0.136409,0.388876
05084,8645664,0.218858,-1.119130,9.717559,0.040668,0.137267,0.383442
05085,8645689,0.241862,-1.141869,9.658377,0.032178,0.138710,0.372817
05086,8645714,0.232110,-1.094514,9.638550,0.026310,0.129222,0.370800
05087,8645739,0.236659,-1.056861,9.612740,0.017116,0.127987,0.366455
05088,8645764,0.252787,-1.037571,9.567199,0.011819,0.133156,0.359520
05089,8645789,0.266827,-0.955873,9.494731,0.001473,0.128037,0.353404
05090,8645814,0.264810,-0.895824,9.462409,-0.011435,0.124180,0.350592
05091,8645839,0.284433,-0.855532,9.411449,-0.023092,0.122457,0.347502
05092,8645864,0.294184,-0.816398,9.345373,-0.036539,0.123314,0.341646
05093,8645889,0.302535,-0.777825,9.339093,-0.046900,0.116392,0.338053
05094,8645914,0.298472,-0.776498,9.316336,-0.060172,0.121751,0.336795
05095,8645939,0.322480,-0.778383,9.289962,-0.068058,0.118481,0.331173
05096,8645964,0.254479,-0.795000,9.328917,-0.082466,0.118152,0.326719
05097,8645989,0.266003,-0.846147,9.310931,-0.088961,0.120039,0.325809
05098,8646014,0.261569,-0.862729,9.339174,-0.096136,0.121614,0.319596
05099,8646039,0.227576,-0.877664,9.375061,-0.105935,0.118295,0.318065
05100,8646064,0.183096,-0.922318,9.406136,-0.107016,0.115872,0.315576
05101,8646089,0.187921,-0.927824,9.486408,-0.109917,0.116191,0.313153
05102,8646114,0.138210,-0.906177,9.520477,-0.107281,0.116979,0.308657
05103,8646139,0.113899,-0.926730,9.608922,-0.109170,0.112555,0.309577
05104,8646164,0.106193,-0.873253,9.664956,-0.108854,0.110174,0.308711
05105,8646189,0.110149,-0.867848,9.705583,-0.108896,0.106273,0.306205
05106,8646214,0.088395,-0.859242,9.765641,-0.107011,0.104662,0.308042
05107,8646239,0.094347,-0.826894,9.802033,-0.102921,0.102041,0.308723
05108,8646264,0.061034,-0.837499,9.847068,-0.099304,0.100123,0.304081
05109,8646289,0.073183,-0.832203,9.850836,-0.100571,0.099080,0.304972
05110,8646314,0.067428,-0.831703,9.869648,-0.098664,0.096092,0.301790
05111,8646339,0.050990,-0.861129,9.854122,-0.097838,0.090345,0.302664
05112,8646364,0.055456,-0.872860,9.852335,-0.095868,0.087412,0.303412
05113,8646389,0.093220,-0.898687,9.825828,-0.091513,0.084849,0.304896
05114,8646414,0.100713,-0.873902,9.832938,-0.090164,0.083246,0.302852
05115,8646439,0.122341,-0.882457,9.837847,-0.093044,0.078856,0.302372
05116,8646464,0.161597,-0.889460,9.830581,-0.089458,0.074100,0.299435
05117,8646489,0.225190,-0.871974,9.849708,-0.090477,0.070239,0.296891
05118,8646514,0.282454,-0.897906,9.834325,-0.096063,0.068092,0.295427
05119,8646539,0.315567,-0.929153,9.809599,-0.096652,0.066151,0.290190
05120,8646564,0.380460,-0.916846,9.846153,-0.097899,0.064809,0.289384
05121,8646589,0.408903,-0.902009,9.895244,-0.099975,0.061489,0.284670
05122,8646614,0.440470,-0.900779,9.941953,-0.101584,0.065520,0.279408
05123,8646639,0.449281,-0.887340,10.003014,-0.101390,0.064569,0.278116
05124,8646664,0.493297,-0.899406,10.013842,-0.098382,0.062083,0.276164
05125,8646689,0.508028,-0.861551,10.036163,-0.098394,0.061702,0.272929
05126,8646714,0.524173,-0.862448,10.054429,-0.095506,0.059793,0.267132
05127,8646739,0.543492,-0.884381,10.068257,-0.092965,0.056882,0.264786
05128,8646764,0.527488,-0.878932,10.117878,-0.088309,0.059464,0.260616
05129,8646789,0.504167,-0.851149,10.158086,-0.078650,0.056470,0.260972
05130,8646814,0.486419,-0.888065,10.191903,-0.066520,0.058172,0.258460
05131,8646087,NaN,NaN,NaN,NaN,NaN,NaN
05132,8646839,0.492113,-0.891621,10.243263,-0.059067,0.052946,0.253773
05133,8646864,0.479550,-0.902742,10.298561,-0.048871,0.050532,0.252528
05134,8646889,0.455948,-0.945667,10.351475,-0.037177,0.049327,0.249598
05135,8646914,0.448710,-0.954446,10.362148,-0.021292,0.044867,0.246892
05136,8646939,0.460417,-0.952259,10.366766,-0.008741,0.047011,0.243623
05137,8646964,0.432002,-0.985405,10.378656,0.006620,0.046023,0.241395
05138,8646989,0.447986,-1.031550,10.332498,0.024531,0.044566,0.239868
05139,8647014,0.423228,-1.019001,10.319470,0.037456,0.042176,0.237706
05140,8647039,0.430087,-1.070109,10.282992,0.054807,0.038839,0.229641
05141,8647064,0.422658,-1.099702,10.215377,0.071410,0.037741,0.229419
05142,8647089,0.410219,-1.069465,10.152992,0.081056,0.037067,0.221648
05143,8647114,0.433390,-1.124903,10.061271,0.093224,0.034731,0.220229
05144,8647139,0.430979,-1.104605,10.000390,0.101749,0.038182,0.214420
05145,8647164,0.430823,-1.100665,9.900999,0.108852,0.030612,0.209082
05146,8647189,0.448688,-1.098480,9.798544,0.119143,0.036833,0.203393
05147,8647214,0.458631,-1.082479,9.775421,0.121605,0.039686,0.198447
05148,8647239,0.490814,-1.083713,9.713960,0.123353,0.038680,0.194951
05149,8647264,0.464783,-1.079812,9.685449,0.128073,0.037108,0.189433
05150,8647289,0.473584,-1.066136,9.632445,0.125865,0.040010,0.183433
05151,8647314,0.483153,-1.072342,9.634929,0.127215,0.041652,0.178779
05152,8647339,0.478535,-1.083774,9.618482,0.125989,0.047626,0.171485
05153,8647364,0.457275,-1.087584,9.602402,0.120232,0.045127,0.171652
05154,8647389,0.439635,-1.074106,9.624377,0.117774,0.042176,0.161066
05155,8647414,0.451033,-1.078826,9.600757,0.122320,0.042153,0.160376
05156,8647439,0.405067,-1.072088,9.611140,0.114324,0.046941,0.152919
05157,8647464,0.357897,-1.066017,9.630467,0.112738,0.039663,0.155070
05158,8647489,0.332083,-1.064956,9.618614,0.111393,0.039496,0.152642
05159,8647514,0.294701,-1.049332,9.643473,0.109025,0.037976,0.148065
05160,8647539,0.305991,-1.075529,9.621869,0.103807,0.037120,0.143506
05161,8647564,0.234789,-1.077363,9.605241,0.099064,0.034211,0.142024
05162,8647589,0.212351,-1.083410,9.545414,0.094078,0.028586,0.141799
05163,8647614,0.210714,-1.095574,9.459010,0.092404,0.030462,0.137585
05164,8647639,0.205471,-1.086307,9.407123,0.088105,0.028636,0.136534
05165,8647664,0.207624,-1.068859,9.342456,0.084294,0.026553,0.135770
05166,8647689,0.183036,-1.075908,9.276572,0.076962,0.031809,0.131770
05167,8647714,0.178501,-1.045848,9.203250,0.072872,0.029061,0.129735
05168,8647739,0.181893,-1.055058,9.147616,0.064365,0.028896,0.126394
05169,8647764,0.177994,-1.038578,9.098297,0.054661,0.028230,0.126883
05170,8647789,0.168906,-1.029225,9.036658,0.049012,0.027714,0.119641
05171,8647814,0.162231,-1.021754,9.023669,0.034923,0.030341,0.115309
05172,8647839,0.173037,-0.968228,8.977336,0.028997,0.030497,0.117179
05173,8647864,0.196962,-0.987228,8.902914,0.018989,0.027449,0.115756
05174,8647889,0.197760,-0.913106,8.888474,0.005799,0.034361,0.111528
05175,8647914,0.183706,-0.915986,8.888869,-0.002539,0.031350,0.107989
05176,8647939,0.203683,-0.940401,8.897200,-0.015312,0.033487,0.107362
05177,8647964,0.204343,-0.914762,8.928610,-0.027333,0.034977,0.101516
05178,8647989,0.206152,-0.974222,8.961071,-0.035623,0.036746,0.100172
05179,8648014,0.184915,-0.994436,8.984520,-0.044042,0.038285,0.097077
05180,8648039,0.185680,-0.976660,8.999580,-0.051157,0.038148,0.097770
05181,8648064,0.162128,-0.981115,9.034563,-0.063623,0.035917,0.094313
05182,8648089,0.146442,-1.049730,9.053153,-0.063479,0.035103,0.093227
05183,8648114,0.155388,-1.028354,9.075248,-0.070527,0.034861,0.091884
05184,8648139,0.073114,-0.939909,9.096703,-0.076121,0.035492,0.090318
05185,8648164,0.091045,-0.977362,9.095928,-0.084069,0.035071,0.089239
05186,8648189,0.081551,-1.032187,9.127913,-0.087118,0.030502,0.090554
05187,8648214,0.050488,-1.042271,9.169817,-0.093155,0.028240,0.088044
05188,8648239,0.086382,-1.034041,9.249047,-0.091670,0.023156,0.086030
05189,8648264,0.048349,-1.009327,9.375257,-0.099756,0.021278,0.087478
05190,8648289,0.039508,-1.127458,9.342769,-0.099717,0.020126,0.085520
05191,8648314,0.055234,-1.148332,9.335622,-0.094554,0.020813,0.085018
05192,8648339,0.087800,-1.156077,9.326774,-0.096129,0.014976,0.083727
05193,8648364,0.049527,-1.097735,9.359438,-0.100140,0.014286,0.081482
05194,8648389,0.089297,-1.127223,9.282086,-0.104409,0.018414,0.078522
05195,8648414,0.038090,-1.123469,9.210777,-0.102571,0.015823,0.080357
05196,8648439,0.054426,-1.063544,9.174919,-0.108200,0.012163,0.078348
05197,8648464,0.099779,-1.050226,9.107154,-0.115734,0.016142,0.077096
05198,8648489,0.072904,-1.038044,9.113878,-0.115989,0.018679,0.078189
05199,8648514,0.065777,-1.033636,9.131039,-0.120249,0.018553,0.078177
05200,8648539,0.059634,-1.023292,9.130749,-0.124760,0.024333,0.076956
05201,8648564,0.042544,-0.975126,9.150493,-0.128341,0.026605,0.074559
05202,8648589,0.054382,-0.975001,9.134629,-0.136389,0.030044,0.072151
05203,8648614,0.051769,-0.999166,9.058471,-0.138691,0.031524,0.070683
05204,8648639,0.046495,-0.957076,9.082865,-0.141707,0.036084,0.073089
05205,8648664,0.053598,-0.975258,9.056365,-0.149704,0.040674,0.071220
05206,8648689,0.071602,-0.983078,9.039664,-0.158258,0.040416,0.070624
05207,8648714,0.066244,-0.994675,9.047807,-0.165369,0.042003,0.069387
05208,8648739,0.117174,-1.078933,9.057298,-0.171284,0.045485,0.066528
05209,8648764,0.106840,-1.102615,9.067704,-0.175953,0.043737,0.069595
05210,8648789,0.116406,-1.144082,9.103263,-0.180018,0.052161,0.061323
05211,8648814,0.093504,-1.157766,9.177975,-0.182651,0.050325,0.065172
05212,8648839,0.078779,-1.190097,9.244696,-0.185706,0.051218,0.063435
05213,8648864,0.057839,-1.238101,9.305078,-0.183453,0.054920,0.065608
05214,8648889,0.023537,-1.241855,9.374929,-0.185309,0.054150,0.063961
05215,8648914,0.002447,-1.269141,9.396759,-0.186002,0.049207,0.062162
05216,8648939,-0.030806,-1.261347,9.466692,-0.182983,0.048009,0.064477
05217,8648964,-0.016130,-1.303093,9.480754,-0.180523,0.046637,0.063597
05218,8648989,-0.027006,-1.338783,9.513106,-0.175875,0.044463,0.064877
05219,8649014,-0.094337,-1.335287,9.596034,-0.171547,0.036349,0.064283
05220,8649039,-0.092569,-1.379274,9.671548,-0.162226,0.031365,0.065633
05221,8649064,-0.123336,-1.376552,9.734053,-0.153279,0.027957,0.067081
05222,8649089,-0.159065,-1.432819,9.745857,-0.145474,0.024555,0.068142
05223,8649114,-0.150825,-1.454959,9.744770,-0.138885,0.017335,0.067999
05224,8649139,-0.185137,-1.493292,9.725188,-0.127175,0.012089,0.064734
05225,8649164,-0.180482,-1.490680,9.702698,-0.118525,0.009138,0.068105
05226,8649189,-0.230083,-1.474876,9.686870,-0.105561,0.003951,0.069410
05227,8649214,-0.217819,-1.543638,9.593777,-0.096717,0.000746,0.069427
05228,8649239,-0.235353,-1.539516,9.564089,-0.087471,-0.002506,0.070440
05229,8649264,-0.244517,-1.542541,9.472468,-0.086106,-0.005934,0.070993
05230,8649289,-0.234557,-1.575542,9.429831,-0.076623,-0.007530,0.069509
05231,8648587,NaN,NaN,NaN,NaN,NaN,NaN
05232,8649314,-0.242409,-1.560005,9.389308,-0.073490,-0.010212,0.066074
05233,8649339,-0.252292,-1.580477,9.343805,-0.067151,-0.011657,0.067464
05234,8649364,-0.242154,-1.577031,9.311481,-0.064018,-0.009179,0.062504
05235,8649389,-0.226408,-1.529282,9.320838,-0.060242,-0.009404,0.060397
05236,8649414,-0.192187,-1.541129,9.234628,-0.058356,-0.008081,0.059607
05237,8649439,-0.171104,-1.504075,9.188901,-0.058134,-0.004335,0.059826
05238,8649464,-0.162622,-1.485537,9.172703,-0.063348,0.000340,0.060225
05239,8649489,-0.166195,-1.465922,9.179455,-0.061738,0.002775,0.056950
05240,8649514,-0.142020,-1.460538,9.200125,-0.061803,0.006988,0.057342
05241,8649539,-0.118579,-1.459844,9.232396,-0.067391,0.011338,0.053082
05242,8649564,-0.135074,-1.456187,9.287705,-0.070399,0.008842,0.054098
05243,8649589,-0.115581,-1.457375,9.311921,-0.073908,0.013117,0.057933
05244,8649614,-0.130806,-1.426089,9.400569,-0.072773,0.017082,0.053414
05245,8649639,-0.122544,-1.403974,9.479130,-0.072999,0.018246,0.051696
05246,8649664,-0.106275,-1.382400,9.545913,-0.072710,0.020852,0.056306
05247,8649689,-0.124381,-1.287290,9.614230,-0.071856,0.020207,0.055382
05248,8649714,-0.109461,-1.302998,9.638950,-0.073232,0.022143,0.057828
05249,8649739,-0.094546,-1.264502,9.723722,-0.067359,0.017007,0.058333
05250,8649764,-0.115379,-1.262722,9.758217,-0.069892,0.016569,0.058494
05251,8649789,-0.091205,-1.274505,9.811557,-0.065915,0.016520,0.058898
05252,8649814,-0.077333,-1.275079,9.881704,-0.063553,0.016258,0.062051
05253,8649839,-0.069871,-1.278649,9.930676,-0.062738,0.013929,0.064955
05254,8649864,-0.081704,-1.338550,9.955789,-0.055847,0.010312,0.064320
05255,8649889,-0.050414,-1.373659,9.996518,-0.050771,0.003574,0.064643
05256,8649914,-0.056133,-1.429976,10.004273,-0.045227,0.002445,0.068387
05257,8649939,-0.058497,-1.465879,10.010385,-0.039299,0.003190,0.063109
05258,8649964,-0.038147,-1.508666,10.009676,-0.034595,0.003696,0.064046
05259,8649989,-0.056449,-1.512794,10.014431,-0.029260,0.002619,0.066384
05260,8650014,-0.027129,-1.567003,9.942459,-0.024852,0.000756,0.066531
05261,8650039,-0.040994,-1.521282,9.936049,-0.023642,-0.001410,0.064436
05262,8650064,-0.032862,-1.504281,9.920175,-0.021546,-0.003093,0.062855
05263,8650089,-0.001273,-1.513196,9.881054,-0.019370,-0.003430,0.065004
05264,8650114,-0.009797,-1.471452,9.862298,-0.015900,-0.007273,0.060696
05265,8650139,-0.026604,-1.414712,9.861107,-0.016259,-0.009143,0.061806
05266,8650164,-0.010590,-1.383150,9.871407,-0.016506,-0.008504,0.063143
05267,8650189,-0.011108,-1.284163,9.892440,-0.014941,-0.008391,0.063489
05268,8650214,-0.022222,-1.197474,9.916662,-0.016916,-0.019386,0.065645
05269,8650239,-0.004743,-1.119943,9.931080,-0.022705,-0.015138,0.065016
05270,8650264,0.070511,-1.056765,9.907689,-0.024432,-0.019282,0.064746
05271,8650289,0.033882,-1.021684,9.929549,-0.027677,-0.016817,0.067902
05272,8650314,0.049640,-1.000372,9.916339,-0.029697,-0.015236,0.074046
05273,8650339,0.049264,-0.920354,9.956082,-0.033022,-0.017415,0.078999
05274,8650364,0.022607,-0.853574,9.998335,-0.031246,-0.020684,0.080834
05275,8650389,0.046463,-0.772867,10.043702,-0.038305,-0.021498,0.086508
05276,8650414,0.050661,-0.707194,10.073742,-0.042818,-0.020991,0.087004
05277,8650439,0.060410,-0.704833,10.075552,-0.044543,-0.023368,0.096302
05278,8650464,0.058819,-0.663091,10.086998,-0.044866,-0.023638,0.099803
05279,8650489,0.034915,-0.649400,10.170657,-0.049864,-0.026633,0.110356
05280,8650514,0.076143,-0.649518,10.238602,-0.052719,-0.029066,0.115522
05281,8650539,0.083210,-0.699836,10.185963,-0.044413,-0.028804,0.117477
05282,8650564,0.037032,-0.617188,10.192716,-0.043993,-0.034033,0.122689
05283,8650589,0.063415,-0.654656,10.207782,-0.042719,-0.033998,0.127200
05284,8650614,0.106152,-0.588451,10.279766,-0.038391,-0.034249,0.133550
05285,8650639,0.112250,-0.641609,10.246865,-0.033918,-0.033037,0.137893
05286,8650664,0.084778,-0.637153,10.227275,-0.025159,-0.034817,0.144821
05287,8650689,0.106874,-0.602426,10.244157,-0.021917,-0.035831,0.146132
05288,8650714,0.136143,-0.588314,10.219724,-0.014183,-0.035250,0.150434
05289,8650739,0.099205,-0.584280,10.194317,-0.006844,-0.031297,0.155038
05290,8650764,0.132148,-0.579171,10.145850,0.001717,-0.034739,0.158236
05291,8650789,0.141959,-0.512140,10.133741,0.004619,-0.030972,0.158051
05292,8650814,0.137789,-0.517016,10.086679,0.007524,-0.029770,0.163772
05293,8650839,0.170347,-0.486156,10.128095,0.014348,-0.028485,0.166672
05294,8650864,0.186120,-0.426434,10.169629,0.018179,-0.026643,0.167661
05295,8650889,0.216154,-0.450342,10.164598,0.019138,-0.026482,0.168388
05296,8650914,0.243819,-0.488438,10.176999,0.023527,-0.023931,0.166836
05297,8650939,0.259811,-0.510929,10.254322,0.028583,-0.023752,0.168853
05298,8650964,0.302023,-0.546379,10.272324,0.027538,-0.019561,0.167035
05299,8650989,0.340644,-0.567523,10.218043,0.036014,-0.015923,0.163832
05300,8651014,0.348442,-0.581391,10.180611,0.033019,-0.012387,0.160793
05301,8651039,0.357390,-0.626974,10.144995,0.033445,-0.007978,0.158856
05302,8651064,0.393231,-0.695037,10.122466,0.030478,-0.005350,0.152078
05303,8651089,0.425973,-0.759481,10.109048,0.029034,0.002781,0.149149
05304,8651114,0.442156,-0.827048,10.134397,0.030825,0.002772,0.141980
05305,8651139,0.464944,-0.918123,10.172287,0.028814,0.010131,0.133421
05306,8651164,0.472696,-0.950974,10.181916,0.024981,0.010278,0.124837
05307,8651189,0.468810,-1.044091,10.201827,0.023382,0.013726,0.115555
05308,8651214,0.502342,-1.132989,10.197727,0.020137,0.018700,0.105413
05309,8651239,0.521584,-1.194264,10.242530,0.021481,0.018991,0.095514
05310,8651264,0.557745,-1.289346,10.224231,0.023051,0.025854,0.083368
05311,8651289,0.567307,-1.372923,10.220283,0.025339,0.030220,0.072361
05312,8651314,0.546138,-1.435839,10.240024,0.023004,0.034680,0.062235
05313,8651339,0.501806,-1.500509,10.233575,0.028687,0.037112,0.048629
05314,8651364,0.476872,-1.538791,10.229576,0.032476,0.036084,0.039584
05315,8651389,0.504362,-1.571118,10.244470,0.037918,0.040955,0.030717
05316,8651414,0.463715,-1.573498,10.261289,0.044950,0.038745,0.018889
05317,8651439,0.489923,-1.574659,10.198261,0.047218,0.045771,0.008295
05318,8651464,0.437161,-1.503534,10.201595,0.048900,0.045534,-0.002822
05319,8651489,0.445333,-1.493475,10.148586,0.056048,0.049645,-0.013435
05320,8651514,0.436546,-1.470096,10.077159,0.057253,0.055770,-0.019868
05321,8651539,0.357545,-1.329589,10.047078,0.055902,0.057922,-0.029035
05322,8651564,0.334488,-1.273260,9.967393,0.055496,0.059130,-0.034834
05323,8651589,0.306803,-1.181924,9.892087,0.049875,0.068023,-0.040959
05324,8651614,0.257253,-1.055047,9.799298,0.043743,0.069398,-0.047557
05325,8651639,0.230299,-0.975804,9.703107,0.037742,0.073154,-0.052114
05326,8651664,0.208623,-0.829872,9.613277,0.027811,0.075882,-0.057930
05327,8651689,0.168222,-0.757913,9.541930,0.020542,0.083310,-0.060400
05328,8651714,0.146044,-0.652720,9.474635,0.008994,0.089676,-0.060935
05329,8651739,0.103191,-0.531558,9.396848,-0.005099,0.092671,-0.064677
05330,8651764,0.090487,-0.445577,9.338356,-0.018741,0.098691,-0.068504
05331,8651789,0.045535,-0.350244,9.325376,-0.033697,0.105091,-0.069652
05332,8651087,NaN,NaN,NaN,NaN,NaN,NaN
05333,8651814,0.043756,-0.318917,9.266080,-0.042202,0.108860,-0.068814
05334,8651839,0.010490,-0.269256,9.280353,-0.060529,0.117103,-0.067337
05335,8651864,-0.006390,-0.241603,9.256174,-0.071166,0.121314,-0.067784
05336,8651889,-0.045771,-0.226240,9.299057,-0.084205,0.126322,-0.068477
05337,8651914,-0.045160,-0.178707,9.319087,-0.092849,0.128504,-0.066501
05338,8651939,-0.065380,-0.250866,9.352905,-0.097588,0.130827,-0.069226
05339,8651964,-0.084787,-0.222884,9.421471,-0.107604,0.137533,-0.062171
05340,8651989,-0.093957,-0.236739,9.502504,-0.114885,0.135782,-0.063723
05341,8652014,-0.094350,-0.288919,9.575165,-0.119197,0.139980,-0.062126
05342,8652039,-0.081321,-0.313736,9.672605,-0.119901,0.139659,-0.060503
05343,8652064,-0.048089,-0.354482,9.738741,-0.121212,0.141151,-0.058082
05344,8652089,-0.041535,-0.402569,9.783153,-0.120609,0.140876,-0.055565
05345,8652114,-0.050148,-0.415807,9.847643,-0.116308,0.142466,-0.054272
05346,8652139,-0.062228,-0.420320,9.902288,-0.112325,0.142980,-0.053826
05347,8652164,-0.089973,-0.418761,9.935070,-0.105332,0.137966,-0.051410
05348,8652189,-0.079323,-0.412556,9.982543,-0.104392,0.135972,-0.051843
05349,8652214,-0.104272,-0.356312,9.985411,-0.096510,0.132554,-0.048441
05350,8652239,-0.102614,-0.326038,10.026186,-0.094713,0.126984,-0.048167
05351,8652264,-0.094981,-0.290383,10.108281,-0.091194,0.119812,-0.046420
05352,8652289,-0.085253,-0.278622,10.211306,-0.087945,0.112832,-0.042470
05353,8652314,-0.067804,-0.246207,10.262931,-0.084572,0.108645,-0.043671
05354,8652339,-0.054408,-0.229479,10.325616,-0.081131,0.100740,-0.042127
05355,8652364,-0.034477,-0.202461,10.367156,-0.074993,0.092820,-0.037389
05356,8652389,-0.010595,-0.182102,10.388810,-0.069575,0.085788,-0.035027
05357,8652414,0.011822,-0.153824,10.474455,-0.068927,0.079035,-0.032201
05358,8652439,0.022796,-0.129212,10.529486,-0.064419,0.067126,-0.031178
05359,8652464,0.062144,-0.099675,10.605642,-0.062495,0.053283,-0.029241
05360,8652489,0.075820,-0.068649,10.656094,-0.056316,0.042961,-0.029258
05361,8652514,0.130961,-0.049534,10.710361,-0.054856,0.035902,-0.027028
05362,8652539,0.130105,-0.080940,10.766815,-0.053224,0.026768,-0.026630
05363,8652564,0.169627,-0.000809,10.857824,-0.045986,0.016422,-0.026676
05364,8652589,0.209150,-0.009510,10.942985,-0.042100,0.008043,-0.025317
05365,8652614,0.214785,-0.012179,10.955905,-0.034887,-0.001253,-0.019774
05366,8652639,0.249008,0.050046,11.010575,-0.024672,-0.005600,-0.025190
05367,8652664,0.272910,0.070929,11.011286,-0.017956,-0.016952,-0.025257
05368,8652689,0.266992,0.091746,11.004799,-0.012481,-0.025205,-0.020687
05369,8652714,0.252843,0.169254,11.010780,-0.003922,-0.033209,-0.020875
05370,8652739,0.237575,0.183729,10.962666,0.003365,-0.034435,-0.018254
05371,8652764,0.226341,0.234464,10.940964,0.012068,-0.048235,-0.019328
05372,8652789,0.236667,0.261006,10.919670,0.015976,-0.052033,-0.018817
05373,8652814,0.225691,0.251340,10.861183,0.018891,-0.062111,-0.015914
05374,8652839,0.256069,0.253976,10.818593,0.032278,-0.066160,-0.014734
05375,8652864,0.281662,0.250405,10.719002,0.031235,-0.071049,-0.011750
05376,8652889,0.316974,0.211995,10.638724,0.033145,-0.073494,-0.013286
05377,8652914,0.298016,0.191406,10.537779,0.037926,-0.073850,-0.011651
05378,8652939,0.329548,0.132698,10.408863,0.043061,-0.077584,-0.014101
05379,8652964,0.286018,0.115344,10.321511,0.043748,-0.078626,-0.012569
05380,8652989,0.278088,0.075384,10.137123,0.042403,-0.075147,-0.020684
05381,8653014,0.317505,0.054122,10.024753,0.045135,-0.076434,-0.019509
05382,8653039,0.294704,-0.012522,9.883306,0.041478,-0.072923,-0.018717
05383,8653064,0.291754,-0.035363,9.791278,0.041723,-0.074081,-0.021809
05384,8653089,0.272871,-0.100374,9.710078,0.040518,-0.070529,-0.026391
05385,8653114,0.263860,-0.133759,9.656508,0.038209,-0.070901,-0.027931
05386,8653139,0.262370,-0.191079,9.605133,0.035995,-0.064088,-0.031571
05387,8653164,0.222378,-0.191170,9.545960,0.032678,-0.065735,-0.032909
05388,8653189,0.201123,-0.249497,9.508247,0.036132,-0.064749,-0.032096
05389,8653214,0.176481,-0.314939,9.459043,0.036675,-0.061755,-0.032856
05390,8653239,0.165905,-0.318134,9.448482,0.036702,-0.062478,-0.037508
05391,8653264,0.160862,-0.396728,9.443195,0.039790,-0.061134,-0.037804
05392,8653289,0.130795,-0.438466,9.442343,0.042633,-0.060613,-0.041427
05393,8653314,0.138766,-0.471146,9.419624,0.047398,-0.067271,-0.042820
05394,8653339,0.076158,-0.507882,9.437800,0.047884,-0.068779,-0.046745
05395,8653364,0.114066,-0.540816,9.462788,0.052924,-0.068344,-0.047721
05396,8653389,0.082287,-0.561105,9.415253,0.055397,-0.066677,-0.049095
05397,8653414,0.048012,-0.588583,9.440346,0.064494,-0.073265,-0.048395
05398,8653439,0.060063,-0.619012,9.381321,0.072380,-0.072496,-0.048840
05399,8653464,0.034021,-0.531381,9.449317,0.079118,-0.071840,-0.048764
05400,8653489,-0.024612,-0.507662,9.297375,0.078314,-0.074925,-0.044756
05401,8653514,-0.045905,-0.548099,9.187161,0.079259,-0.079395,-0.047381
05402,8653539,-0.009503,-0.569396,9.095942,0.081392,-0.081907,-0.045460
05403,8653564,-0.074107,-0.562629,8.989757,0.082324,-0.077400,-0.041963
05404,8653589,-0.084823,-0.533403,8.954663,0.086572,-0.085339,-0.042328
05405,8653614,-0.162487,-0.520625,8.860997,0.089941,-0.081021,-0.042084
05406,8653639,-0.214404,-0.451035,8.831122,0.092138,-0.082670,-0.040035
05407,8653664,-0.128835,-0.395555,8.782778,0.087946,-0.087880,-0.038479
05408,8653689,-0.091116,-0.386172,8.720833,0.091704,-0.080021,-0.035007
05409,8653714,-0.121857,-0.311325,8.676335,0.084154,-0.075680,-0.032775
05410,8653739,-0.138113,-0.331948,8.611105,0.078208,-0.074430,-0.029279
05411,8653764,-0.156412,-0.256894,8.601181,0.076134,-0.078084,-0.029273
05412,8653789,-0.126843,-0.207456,8.538061,0.066669,-0.074956,-0.024854
05413,8653814,-0.102432,-0.151189,8.516476,0.062225,-0.070564,-0.021552
05414,8653839,-0.083863,-0.084667,8.527815,0.051194,-0.061332,-0.020289
05415,8653864,-0.048948,-0.103809,8.485398,0.042636,-0.055917,-0.015558
05416,8653889,-0.020861,-0.095033,8.489495,0.033832,-0.051558,-0.012530
05417,8653914,0.002087,-0.103118,8.523657,0.015491,-0.041325,-0.012021
05418,8653939,-0.003071,-0.090053,8.584977,0.006480,-0.038102,-0.009015
05419,8653964,-0.006766,-0.084391,8.620381,-0.003570,-0.033590,-0.007364
05420,8653989,-0.012624,-0.071507,8.676147,-0.009288,-0.025298,-0.003679
05421,8654014,-0.032076,-0.075237,8.711743,-0.018984,-0.023238,-0.001211
05422,8654039,0.008423,-0.040795,8.732603,-0.026359,-0.013734,-0.001405
05423,8654064,-0.013981,-0.037884,8.786725,-0.034708,-0.007841,0.003465
05424,8654089,-0.057382,-0.066266,8.826634,-0.039829,-0.004873,0.009964
05425,8654114,-0.044332,-0.084780,8.873148,-0.042905,0.000773,0.010208
05426,8654139,-0.070284,-0.052416,8.946033,-0.050215,0.006142,0.012738
05427,8654164,-0.033516,-0.044432,8.955642,-0.052510,0.012172,0.016610
05428,8654189,-0.041722,-0.062160,9.050245,-0.055249,0.012433,0.018140
05429,8654214,-0.091122,-0.038687,9.113045,-0.053929,0.016522,0.022801
05430,8654239,-0.090403,-0.081438,9.158794,-0.056012,0.020143,0.026845
05431,8654264,-0.100433,-0.065576,9.237354,-0.048779,0.021426,0.030033
05432,8654289,-0.106016,-0.090446,9.290473,-0.040634,0.023580,0.035445
05433,8653587,NaN,NaN,NaN,NaN,NaN,NaN
05434,8654314,-0.142477,-0.100849,9.327903,-0.035168,0.028013,0.038106
05435,8654339,-0.153740,-0.053261,9.373873,-0.027002,0.024880,0.041290
05436,8654364,-0.191557,-0.069171,9.362094,-0.023851,0.025048,0.047290
05437,8654389,-0.227472,-0.073756,9.379567,-0.016637,0.031825,0.053854
05438,8654414,-0.233326,-0.106608,9.339323,-0.008543,0.028758,0.058127
05439,8654439,-0.269874,-0.094032,9.319654,0.002385,0.028702,0.060444
05440,8654464,-0.279602,-0.124639,9.279169,0.006663,0.032643,0.070203
05441,8654489,-0.267899,-0.136843,9.248845,0.017294,0.032976,0.071573
05442,8654514,-0.292173,-0.105906,9.255138,0.026269,0.035355,0.080571
05443,8654539,-0.268034,-0.094446,9.185232,0.023795,0.038942,0.083277
05444,8654564,-0.276218,-0.083515,9.170856,0.032873,0.039548,0.089914
05445,8654589,-0.295507,-0.024425,9.138545,0.033530,0.044558,0.095514
05446,8654614,-0.293162,-0.028308,9.081133,0.040219,0.048215,0.098313
05447,8654639,-0.300290,0.014110,9.022739,0.036172,0.055309,0.108691
05448,8654664,-0.325333,0.032751,8.963820,0.033563,0.063039,0.111196
05449,8654689,-0.347518,0.038866,8.912104,0.032126,0.066728,0.117590
05450,8654714,-0.351978,0.056522,8.884421,0.031070,0.069519,0.120317
05451,8654739,-0.353125,0.038505,8.869066,0.029366,0.073989,0.126765
05452,8654764,-0.349231,0.024322,8.870043,0.018760,0.077396,0.133022
05453,8654789,-0.325232,-0.008937,8.871475,0.014604,0.079901,0.139339
05454,8654814,-0.341644,-0.023905,8.918726,0.014586,0.086398,0.142331
05455,8654839,-0.354560,-0.034076,8.949384,0.008594,0.087515,0.146916
05456,8654864,-0.348172,-0.084656,8.987457,0.007468,0.097043,0.151575
05457,8654889,-0.370864,-0.103206,9.080769,0.006542,0.101403,0.161224
05458,8654914,-0.396699,-0.155100,9.165001,0.008740,0.098649,0.165951
05459,8654939,-0.411605,-0.186322,9.229563,0.009135,0.099797,0.170384
05460,8654964,-0.420041,-0.229578,9.313036,0.014352,0.097691,0.172877
05461,8654989,-0.426652,-0.289345,9.365534,0.012226,0.098551,0.177921
05462,8655014,-0.431094,-0.320282,9.467486,0.020679,0.097280,0.184055
05463,8655039,-0.462456,-0.347797,9.521537,0.025571,0.092832,0.189557
05464,8655064,-0.447730,-0.399829,9.587208,0.032794,0.087880,0.190162
05465,8655089,-0.427908,-0.411354,9.647366,0.038030,0.088198,0.192348
05466,8655114,-0.451061,-0.428491,9.726811,0.045203,0.085048,0.199624
05467,8655139,-0.459972,-0.434524,9.766874,0.054508,0.076295,0.199971
05468,8655164,-0.443250,-0.419844,9.793347,0.063700,0.071492,0.205659
05469,8655189,-0.459818,-0.410238,9.847902,0.072285,0.067078,0.210520
05470,8655214,-0.448903,-0.439903,9.866031,0.075608,0.060689,0.214481
05471,8655239,-0.456291,-0.414106,9.878767,0.082978,0.053129,0.216366
05472,8655264,-0.459635,-0.400818,9.908602,0.094681,0.046004,0.218803
05473,8655289,-0.435547,-0.420173,9.896213,0.099475,0.040954,0.221821
05474,8655314,-0.447227,-0.359594,9.955745,0.105863,0.034102,0.225113
05475,8655339,-0.440511,-0.345970,9.954341,0.110581,0.029146,0.228261
05476,8655364,-0.428320,-0.305965,9.962352,0.118078,0.025470,0.232355
05477,8655389,-0.395375,-0.277109,9.964877,0.117368,0.022575,0.235578
05478,8655414,-0.408986,-0.319133,9.920613,0.121971,0.017481,0.240294
