Acc_X,Acc_Y,Acc_Z
-0.106048,0.098389,9.792996
-0.106522,0.069519,9.796357
-0.105662,0.083706,9.787249
-0.103143,0.087961,9.801292
-0.107396,0.057948,9.793567
-0.115215,0.07696,9.796572
-0.120769,0.107555,9.805846
-0.119263,0.108846,9.808778
-0.100892,0.106591,9.793758
-0.109648,0.106263,9.802079
-0.106116,0.067779,9.82039
-0.112779,0.096853,9.797406
-0.106787,0.074194,9.801984
-0.149484,0.091513,9.803033
-0.118579,0.109352,9.808564
-0.117857,0.106077,9.806752
-0.092824,0.113779,9.811401
-0.11435,0.107181,9.801197
-0.13476,0.105607,9.815239
-0.076401,0.08726,9.807563
-0.104406,0.066786,9.801077
-0.129176,0.059517,9.799623
-0.104824,0.075354,9.814596
-0.099666,0.087277,9.791922
-0.121519,0.083151,9.795737
-0.093857,0.104968,9.805703
-0.115662,0.116638,9.803199
-0.100023,0.114003,9.795117
-0.111175,0.091419,9.796524
-0.116662,0.091253,9.802294
-0.098271,0.066563,9.802937
-0.102964,0.060322,9.804773
-0.104471,0.089251,9.796857
-0.097623,0.101232,9.799265
-0.102351,0.095554,9.81102
-0.113992,0.110884,9.80277
-0.124395,0.11141,9.802365
-0.11718,0.103539,9.797359
-0.120092,0.09666,9.799908
-0.105448,0.069763,9.813929
-0.1052,0.100002,9.813046
-0.094544,0.095933,9.795498
-0.093706,0.107818,9.805417
-0.109414,0.10695,9.804319
-0.100867,0.10483,9.799767
-0.110688,0.090867,9.798098
-0.122326,0.10513,9.81338
-0.111804,0.078503,9.791684
-0.104388,0.08146,9.791183
-0.108438,0.073339,9.793019
-0.120705,0.0707,9.788632
-0.106245,0.104401,9.808063
-0.115784,0.120253,9.812379
-0.101894,0.102627,9.810352
-0.114494,0.099338,9.80339
-0.113173,0.10788,9.798359
-0.111821,0.082249,9.796237
-0.12999,0.066215,9.79209
-0.099893,0.079936,9.795045
-0.12363,0.066708,9.788894
-0.114318,0.069858,9.810352
-0.117548,0.084076,9.809231
-0.103631,0.103771,9.804343
-0.110847,0.110312,9.828472
-0.109271,0.101332,9.799385
-0.117396,0.078812,9.802794
-0.107183,0.087244,9.810495
-0.09378,0.084906,9.806704
-0.101234,0.095784,9.799718
-0.116699,0.090755,9.794878
-0.110074,0.091849,9.804439
-0.1107,0.088105,9.809756
-0.10204,0.109768,9.798574
-0.110961,0.095113,9.791469
-0.092224,0.110257,9.806013
-0.106405,0.07375,9.810114
-0.106824,0.081056,9.803081
-0.100091,0.091346,9.808945
-0.12017,0.09655,9.808063
-0.111402,0.100656,9.806323
-0.113757,0.126649,9.803819
-0.108246,0.104363,9.78632
-0.113216,0.107129,9.80556
-0.105643,0.094454,9.811521
-0.124933,0.066986,9.80897
-0.119335,0.079599,9.801935
-0.094618,0.079585,9.798335
-0.128159,0.105288,9.809374
-0.113616,0.09948,9.824419
-0.106629,0.116426,9.805202
-0.094255,0.099179,9.821438
-0.100565,0.091713,9.81586
-0.105141,0.069402,9.815454
-0.103787,0.068686,9.808468
-0.098893,0.089447,9.799575
-0.100682,0.073235,9.817719
-0.105091,0.094678,9.798598
-0.122059,0.09588,9.796213
-0.119992,0.116427,9.799599
-0.106414,0.132752,9.796071
-0.10344,0.084539,9.794092
-0.101193,0.086979,9.814143
-0.109647,0.078221,9.800458
-0.112275,0.083233,9.80668
-0.110757,0.080732,9.810042
-0.112411,0.104507,9.796047
-0.095726,0.095884,9.806585
-0.12212,0.099654,9.795689
-0.111553,0.10714,9.793066
-0.111154,0.099847,9.802818
-0.112605,0.088754,9.790825
-0.10544,0.081899,9.791136
-0.113893,0.078517,9.789992
-0.097245,0.06661,9.795284
-0.128092,0.086929,9.809803
-0.129415,0.085945,9.802747
-0.121455,0.111635,9.811353
-0.110358,0.104413,9.810447
-0.101186,0.09525,9.801816
-0.110663,0.085102,9.791041
-0.116903,0.103946,9.805417
-0.118501,0.083241,9.791422
-0.099161,0.073738,9.802174
-0.109089,0.08787,9.78868
-0.110269,0.082292,9.803104
-0.114332,0.096169,9.817457
-0.103041,0.105999,9.798288
-0.09849,0.11915,9.796572
-0.096857,0.089279,9.799528
-0.103781,0.086004,9.794449
-0.096692,0.074414,9.790301
-0.094675,0.074107,9.790134
-0.115085,0.096524,9.80978
-0.128742,0.094246,9.799313
-0.12557,0.10564,9.808802
-0.123662,0.107137,9.808325
-0.117804,0.107389,9.795521
-0.109888,0.097307,9.791041
-0.118747,0.093905,9.803915
-0.112839,0.079201,9.791422
-0.116358,0.06278,9.800171
-0.106973,0.087665,9.797883
-0.117597,0.08503,9.799337
-0.110555,0.099845,9.809041
-0.112497,0.104967,9.813952
-0.108893,0.10686,9.80494
-0.115538,0.109855,9.798741
-0.109219,0.082512,9.803556
-0.104792,0.070597,9.794974
-0.105177,0.086821,9.799003
-0.108523,0.107667,9.798885
-0.102731,0.088376,9.795666
-0.092134,0.096462,9.80823
-0.114047,0.092341,9.821557
-0.101819,0.112372,9.806514
-0.102697,0.091742,9.807015
-0.11512,0.082918,9.809875
-0.11488,0.067782,9.802556
-0.106265,0.062108,9.798097
-0.107517,0.079397,9.811305
-0.123114,0.076788,9.79917
-0.118034,0.110062,9.805369
-0.119173,0.132433,9.802985
-0.118901,0.093401,9.799433
-0.096541,0.08792,9.80916
-0.102711,0.10141,9.808039
-0.106582,0.064904,9.812283
-0.113508,0.062378,9.796881
-0.115068,0.084881,9.799504
-0.118415,0.083702,9.808111
-0.098722,0.091577,9.82089
-0.123244,0.100589,9.815121
-0.133128,0.097745,9.797858
-0.119345,0.078374,9.803295
-0.124267,0.089209,9.800553
-0.10074,0.086686,9.791255
-0.092582,0.069786,9.79352
-0.099131,0.069332,9.80506
-0.096802,0.104141,9.806085
-0.1153,0.084209,9.812975
-0.111923,0.104882,9.810351
-0.096532,0.114824,9.81183
-0.113442,0.095,9.809613
-0.12142,0.091284,9.79247
-0.102655,0.089093,9.81462
-0.103737,0.075179,9.792947
-0.097395,0.091629,9.799265
-0.11293,0.089148,9.812903
-0.115585,0.106624,9.797358
-0.118056,0.124401,9.81264
-0.129244,0.109157,9.801793
-0.09499,0.091493,9.804463
-0.120788,0.063319,9.807181
-0.105509,0.079795,9.817934
-0.109878,0.07348,9.802079
-0.11566,0.103522,9.810495
-0.109073,0.081678,9.802603
-0.122998,0.091989,9.794925
-0.109608,0.097222,9.81729
-0.114322,0.111567,9.815336
-0.112439,0.083133,9.794116
-0.116926,0.080171,9.806418
-0.10971,0.066327,9.79147
-0.0986,0.076988,9.799337
-0.105377,0.094346,9.801364
-0.119366,0.086241,9.79495
-0.117619,0.094204,9.798741
-0.098844,0.113976,9.80246
-0.114121,0.11616,9.807514
-0.113121,0.087154,9.798407
-0.105828,0.09151,9.80618
-0.100539,0.096518,9.815049
-0.105342,0.078996,9.80122
-0.119291,0.073878,9.793948
-0.120241,0.09445,9.813237
-0.134969,0.101693,9.816169
-0.116724,0.100802,9.811544
-0.115148,0.097367,9.804535
-0.111823,0.089825,9.813976
-0.116335,0.079483,9.791612
-0.103969,0.093488,9.801292
-0.098377,0.058159,9.796333
-0.103743,0.070033,9.817266
-0.116049,0.079991,9.805989
-0.118318,0.093972,9.808946
-0.107273,0.108717,9.810113
-0.102883,0.107221,9.809994
-0.092189,0.103762,9.79793
-0.087658,0.092273,9.799409
-0.10036,0.078397,9.791541
-0.101716,0.075788,9.813308
-0.13395,0.087033,9.7862
-0.102011,0.087853,9.81071
-0.112137,0.104797,9.800005
-0.100224,0.104551,9.808373
-0.121329,0.091517,9.83274
-0.100336,0.097601,9.795331
-0.129757,0.07888,9.804989
-0.106482,0.077201,9.792518
-0.132742,0.058538,9.788107
-0.110545,0.070649,9.797978
-0.128518,0.093182,9.802532
-0.122532,0.077086,9.795355
-0.124993,0.110458,9.807658
-0.099254,0.09103,9.784149
-0.097238,0.113221,9.79538
-0.10805,0.080169,9.80289
-0.110218,0.084826,9.809017
-0.104079,0.076742,9.793615
-0.120929,0.08243,9.800672
-0.110025,0.099545,9.801197
-0.117597,0.09203,9.821533
-0.111742,0.096883,9.806752
-0.111621,0.104516,9.800386
-0.11703,0.112215,9.769916
-0.108909,0.092692,9.785724
-0.11194,0.084031,9.809541
-0.096337,0.071266,9.797859
-0.089292,0.08584,9.804773
-0.11633,0.103825,9.807467
-0.09996,0.115076,9.807587
-0.106105,0.099164,9.797859
-0.142065,0.098842,9.792661
-0.108497,0.115479,9.800243
-0.119251,0.104181,9.80029
-0.09744,0.062214,9.800505
-0.121003,0.079804,9.803057
-0.110957,0.08414,9.802366
-0.112128,0.085857,9.794235
-0.105516,0.08787,9.801459
-0.100217,0.097854,9.811568
-0.091453,0.115781,9.80587
-0.116368,0.097858,9.805917
-0.099252,0.083584,9.797907
-0.106171,0.067618,9.807372
-0.099573,0.094536,9.798073
-0.118788,0.106486,9.802627
-0.112174,0.084146,9.798789
-0.124419,0.100257,9.802079
-0.102393,0.093709,9.797406
-0.115859,0.104159,9.819459
-0.124921,0.128099,9.789872
-0.112154,0.096305,9.796381
-0.0969,0.059192,9.793138
-0.108186,0.07636,9.805369
-0.109831,0.090903,9.821677
-0.106402,0.097866,9.804964
-0.094812,0.097707,9.813308
-0.092219,0.094632,9.807872
-0.115042,0.127636,9.797525
-0.101676,0.10658,9.78744
-0.102386,0.074888,9.798718
-0.105569,0.095464,9.814429
-0.109311,0.033021,9.778023
-0.116822,0.127802,9.797811
-0.125038,0.153817,9.841894
-0.111217,0.060834,9.782601
-0.128085,0.061706,9.781694
-0.103271,0.097971,9.808015
-0.09251,0.153115,9.824157
-0.086736,0.092828,9.807277
-0.10636,0.048333,9.840155
-0.086201,0.068242,9.750628
-0.136129,0.132053,9.817123
-0.106279,0.100735,9.812784
-0.120842,0.058298,9.800457
-0.115369,0.059174,9.78198
-0.115111,0.190453,9.793328
-0.132255,0.107561,9.854985
-0.121849,0.035412,9.799289
-0.107006,0.041199,9.808421
-0.095371,0.08971,9.751391
-0.115944,0.117513,9.875536
-0.086521,0.061594,9.751964
-0.141144,0.039674,9.85899
-0.097629,0.095224,9.736561
-0.124328,0.149021,9.849119
-0.100394,0.110295,9.772491
-0.127541,0.070574,9.817671
-0.10613,0.043426,9.803724
-0.120453,0.089637,9.808326
-0.099221,0.095561,9.797644
-0.110248,0.116466,9.820961
-0.108861,0.06991,9.82964
-0.097348,0.065714,9.78663
-0.11651,0.094719,9.825038
-0.114078,0.133587,9.790109
-0.102791,0.115055,9.806417
-0.10724,0.090916,9.764027
-0.128355,0.050996,9.846687
-0.083487,0.056646,9.768724
-0.122307,0.123854,9.827971
-0.107129,0.108571,9.790683
-0.126268,0.105395,9.819985
-0.099853,0.107701,9.799409
-0.096816,0.104476,9.806633
-0.113363,0.107102,9.789848
-0.10036,0.105789,9.808969
-0.107415,0.06684,9.80482
-0.110096,0.073883,9.807348
-0.117324,0.093635,9.801244
-0.1106,0.114716,9.805678
-0.11031,0.112406,9.796047
-0.108827,0.08105,9.791898
-0.102556,0.118721,9.794831
-0.110857,0.109182,9.814191
-0.100578,0.064003,9.803057
-0.109021,0.052354,9.800171
-0.119558,0.086766,9.820008
-0.107451,0.107171,9.800362
-0.10888,0.06979,9.811091
-0.111502,0.08667,9.796762
-0.11631,0.099604,9.826422
-0.123674,0.098724,9.789062
-0.109718,0.099824,9.818244
-0.097295,0.06663,9.77776
-0.128833,0.097503,9.821295
-0.099093,0.022316,9.801984
-0.125401,0.044405,9.801745
-0.106135,0.163556,9.807204
-0.106189,0.166732,9.817337
-0.100188,0.085619,9.808134
-0.129205,0.02714,9.803056
-0.123527,0.121707,9.791826
-0.100609,0.143965,9.807419
-0.10175,0.030929,9.802985
-0.137294,0.011289,9.809994
-0.117101,0.086027,9.800386
-0.124523,0.139628,9.822153
-0.124749,0.131882,9.793472
-0.112094,0.076291,9.807348
-0.0963,0.057091,9.811067
-0.109418,0.088993,9.814238
-0.103984,0.091243,9.807324
-0.117085,0.113204,9.806823
-0.116855,0.085917,9.790635
-0.102189,0.049973,9.808278
-0.102041,0.063618,9.812927
-0.120883,0.114577,9.79669
-0.111381,0.146992,9.811258
-0.107903,0.147149,9.807491
-0.100356,0.06303,9.818673
-0.115857,0.050748,9.794211
-0.123112,0.101827,9.802509
-0.115708,0.110238,9.784865
-0.113682,0.10134,9.8037
-0.113576,0.07604,9.779548
-0.111281,0.072621,9.79278
-0.118143,0.108809,9.80761
-0.113234,0.127452,9.793734
-0.113269,0.102765,9.823989
-0.11048,0.040703,9.799099
-0.109922,0.056382,9.802151
-0.097171,0.147771,9.805535
-0.103009,0.139507,9.830284
-0.120739,-0.028392,9.76963
-0.118772,0.042363,9.816265
-0.096267,0.174811,9.808135
-0.109441,0.201774,9.812903
-0.101568,0.073395,9.792852
-0.115746,-0.004321,9.793496
-0.100921,0.048866,9.802246
-0.112081,0.149209,9.813522
-0.105477,0.15443,9.814287
-0.111303,0.07582,9.812856
-0.119537,0.032807,9.800768
-0.102026,0.087507,9.802341
-0.115251,0.158073,9.811426
-0.112907,0.130988,9.808444
-0.105968,0.046564,9.814191
-0.116398,0.024585,9.806991
-0.107375,0.089193,9.784865
-0.117036,0.141279,9.806013
-0.114795,0.104865,9.81183
-0.119732,0.01168,9.810948
-0.122364,0.077215,9.814095
-0.115059,0.156194,9.790993
-0.104338,0.170666,9.803175
-0.102401,0.087716,9.800171
-0.103484,0.005576,9.801364
-0.085877,0.064423,9.800815
-0.099785,0.125438,9.808778
-0.121139,0.129313,9.800862
-0.119042,0.091891,9.81698
-0.124551,0.06502,9.804892
-0.129977,0.114753,9.786129
-0.116656,0.15685,9.794735
-0.121239,0.119896,9.774017
-0.106363,0.036858,9.808255
-0.095343,0.034857,9.794473
-0.101426,0.100217,9.781265
-0.1081,0.106104,9.807349
-0.103618,0.098916,9.814262
-0.118777,0.070339,9.80761
-0.128974,0.083521,9.805178
-0.106073,0.126435,9.800887
-0.086349,0.134172,9.80165
-0.112547,0.058167,9.813571
-0.095198,0.024118,9.800553
-0.090637,0.068598,9.804153
-0.107032,0.116763,9.790276
-0.108754,0.118985,9.809494
-0.099695,0.087853,9.811639
-0.107819,0.067814,9.799385
-0.10589,0.09356,9.788989
-0.097627,0.118478,9.805179
-0.119866,0.094648,9.793924
-0.122595,0.086777,9.802555
-0.108486,0.077156,9.800411
-0.113296,0.095469,9.79085
-0.094514,0.089609,9.809351
-0.120909,0.093676,9.809446
-0.097983,0.069614,9.8068
-0.107195,0.079684,9.800482
-0.104756,0.112567,9.789348
-0.085247,0.094936,9.799695
-0.121241,0.099723,9.8037
-0.112065,0.063642,9.824943
-0.092463,0.069766,9.804201
-0.108547,0.116922,9.789967
-0.108874,0.130994,9.822106
-0.122669,0.081857,9.817171
-0.097983,0.061291,9.800696
-0.114798,0.100779,9.799813
-0.113295,0.063421,9.810424
-0.098605,0.088981,9.789872
-0.112353,0.059015,9.79414
-0.106718,0.088956,9.795141
-0.10915,0.079173,9.809946
-0.128761,0.080526,9.806823
-0.116265,0.124155,9.806274
-0.120085,0.129081,9.807849
-0.104221,0.072784,9.812999
-0.112086,0.05775,9.805535
-0.114063,0.07102,9.812164
-0.095141,0.097729,9.811949
-0.118392,0.104366,9.803342
-0.122015,0.080775,9.810686
-0.107229,0.076214,9.803032
-0.093283,0.089293,9.815764
-0.110399,0.101059,9.805321
-0.117471,0.098237,9.793853
-0.100134,0.084724,9.787035
-0.12688,0.063389,9.803129
-0.102086,0.082787,9.813094
-0.134903,0.101091,9.801554
-0.12353,0.110302,9.793972
-0.120884,0.106908,9.793829
-0.112776,0.09207,9.81276
-0.132628,0.088227,9.806919
-0.11686,0.097443,9.795975
-0.118026,0.086692,9.794688
-0.106542,0.086872,9.803128
-0.109946,0.066903,9.801721
-0.097901,0.094498,9.803056
-0.11739,0.091063,9.79557
-0.133084,0.10476,9.803128
-0.121827,0.131925,9.803771
-0.113299,0.089657,9.814762
-0.114957,0.076487,9.792041
-0.115601,0.060557,9.797668
-0.098092,0.07316,9.7795
-0.095064,0.097913,9.810566
-0.102739,0.091176,9.802794
-0.10081,0.107487,9.807848
-0.111235,0.119681,9.818029
-0.124462,0.100274,9.810685
-0.099186,0.098206,9.80401
-0.109906,0.088324,9.793806
-0.105928,0.088359,9.794092
-0.102933,0.091028,9.807229
-0.105846,0.072133,9.81543
-0.10272,0.08975,9.812736
-0.104731,0.098852,9.816288
-0.107435,0.118546,9.801674
-0.109932,0.108848,9.803485
-0.093836,0.078278,9.803343
-0.106192,0.080063,9.803176
-0.101457,0.07659,9.807372
-0.119156,0.088023,9.798478
-0.127168,0.09104,9.815693
-0.110022,0.07536,9.799218
-0.093559,0.093872,9.808563
-0.120453,0.095164,9.803652
-0.100171,0.125931,9.814429
-0.111379,0.10725,9.81431
-0.109601,0.093049,9.80668
-0.090289,0.093713,9.809207
-0.097958,0.089391,9.799575
-0.113902,0.097937,9.804438
-0.106157,0.083814,9.801006
-0.130778,0.08166,9.80382
-0.107523,0.09785,9.798956
-0.119933,0.081737,9.802365
-0.10563,0.101885,9.819078
-0.101544,0.109657,9.811521
-0.104959,0.102064,9.810233
-0.102609,0.052812,9.800791
-0.098361,0.06225,9.789776
-0.099226,0.084906,9.78806
-0.131281,0.116078,9.803724
-0.107999,0.104422,9.804773
-0.104701,0.079022,9.791183
-0.131897,0.089183,9.799933
-0.114074,0.093822,9.80966
-0.103867,0.096008,9.818005
-0.083027,0.072728,9.802151
-0.117283,0.065241,9.80153
-0.108932,0.095019,9.809613
-0.125159,0.098797,9.80935
-0.119747,0.116894,9.817147
-0.10887,0.095603,9.800552
-0.107062,0.111968,9.80606
-0.12605,0.106,9.806466
-0.11417,0.094192,9.806966
-0.102504,0.080764,9.804796
-0.111628,0.071739,9.798479
-0.099537,0.072614,9.799957
-0.102927,0.09884,9.797167
-0.105898,0.101383,9.804487
-0.115917,0.101278,9.804367
-0.096123,0.089326,9.807658
-0.109921,0.093502,9.805465
-0.113855,0.088521,9.79054
-0.110003,0.081127,9.791207
-0.110304,0.055687,9.798955
-0.106764,0.065491,9.798597
-0.092974,0.094422,9.802723
-0.111533,0.099038,9.809494
-0.097967,0.103904,9.817814
-0.121853,0.09451,9.813905
-0.121731,0.103643,9.798884
-0.100891,0.089676,9.785795
-0.10947,0.07225,9.806036
-0.119315,0.065595,9.805607
-0.08783,0.077776,9.805822
-0.077231,0.067823,9.802436
-0.089949,0.025355,9.799337
-0.089464,0.010963,9.81047
-0.071745,-0.035298,9.822607
-0.056628,-0.053584,9.826733
-0.0522,-0.119156,9.824808
-0.02511,-0.154074,9.828867
-0.029535,-0.153739,9.820979
-0.006109,-0.202764,9.865788
0.122052,-0.344117,9.816481
0.264643,-0.392778,9.731491
-0.008691,-0.310971,9.879515
-0.00602,-0.259413,9.885935
0.063074,-0.191801,9.801207
-0.162946,-0.116456,9.923547
-0.170149,-0.007665,9.875564
-0.136873,0.067684,9.840298
-0.160556,0.160974,9.814887
-0.117037,0.214805,9.779994
-0.230297,0.299702,9.849139
-0.975168,0.64441,10.52231
-0.674741,0.354996,9.883651
-0.17784,0.497522,9.725016
-0.259019,0.386801,9.874923
-0.292483,-0.013227,9.848409
-0.315854,-0.121298,9.977653
-0.251523,-0.085718,9.95578
-0.320901,0.191481,9.880954
-0.413208,0.38869,9.808749
-0.496466,0.623001,9.835981
-0.516842,0.648348,9.932604
-0.457391,0.679705,9.908556
-0.449302,0.60337,9.945327
-0.513648,0.48174,10.002642
-0.40914,0.402713,10.005663
-0.285136,0.342128,10.030919
-0.211432,0.366964,9.889262
-0.174409,0.450507,9.772905
-0.178614,0.486943,9.752582
-0.19872,0.659821,9.695776
-0.299429,0.66032,9.569842
-0.141399,0.959539,9.781611
-0.253638,0.953251,9.606609
-0.164836,1.064322,9.636159
-0.122823,1.179511,9.674878
-0.096809,1.143102,9.700228
-0.32685,0.72976,9.494011
-0.268486,0.616781,9.675724
-0.233559,0.553346,9.640207
-0.22034,0.570873,9.741881
-0.199405,0.651896,9.867587
-0.186837,0.68174,9.959279
-0.172503,0.664771,10.11843
-0.187044,0.733829,10.326347
-0.238391,0.689587,10.470379
-0.232411,0.571567,10.525165
-0.189787,0.432683,10.54604
-0.1619,0.405622,10.571795
-0.15371,0.354487,10.5532
-0.152456,0.331721,10.543861
-0.180274,0.302623,10.502968
-0.209548,0.297042,10.437527
-0.216666,0.266224,10.374695
-0.236786,0.218776,10.326181
-0.268789,0.186443,10.257025
-0.289776,0.159732,10.174592
-0.289664,0.160404,10.138516
-0.292704,0.147377,10.071532
-0.266507,0.1425,10.000876
-0.203651,0.100246,9.933045
-0.156717,0.07187,9.844959
-0.087715,0.029624,9.772398
-0.038912,0.031478,9.769988
-0.054954,0.102912,9.816145
-0.063223,0.204507,9.895725
-0.096267,0.309626,9.973155
-0.143881,0.26711,9.982842
-0.137144,0.306813,10.140714
-0.191273,0.555466,10.284776
-0.112,0.444496,10.31599
-0.076139,0.553425,10.489128
-0.002384,0.477238,10.590448
0.030496,0.478696,10.726189
0.044393,0.432081,10.824234
0.020019,0.440416,10.932731
0.082831,0.428356,11.011425
0.15472,0.431036,11.076958
0.227896,0.450053,11.146208
0.180443,0.457712,11.192323
0.113982,0.439222,11.237577
0.057766,0.44108,11.23016
-0.049426,0.448461,11.181462
-0.186058,0.40331,11.13473
-0.295042,0.369451,11.115052
-0.32335,0.282353,11.076368
-0.361081,0.20246,11.0693
-0.376179,0.104076,11.081664
-0.418749,0.031082,11.073364
-0.419845,-0.029795,11.082473
-0.39736,-0.079239,11.025927
-0.413509,-0.093421,11.001788
-0.391804,-0.103385,10.990686
-0.372967,-0.118186,10.968183
-0.359225,-0.142395,10.989427
-0.313795,-0.178652,11.042611
-0.24684,-0.222383,11.109785
-0.16009,-0.297196,11.180001
-0.058807,-0.350277,11.23749
0.021618,-0.349321,11.287624
0.080421,-0.331084,11.309131
0.113352,-0.23478,11.341019
0.149413,-0.184093,11.369747
0.123366,-0.115361,11.441953
0.073922,-0.02252,11.478689
0.000942,0.052232,11.486083
-0.003736,0.081687,11.476076
-0.007263,0.088781,11.455719
0.022187,0.098243,11.437282
0.056541,0.085555,11.399643
0.023317,0.094272,11.370815
-0.011779,0.10732,11.321679
-0.038616,0.137543,11.295865
-0.098238,0.170503,11.283524
-0.123176,0.18081,11.272209
-0.115396,0.197579,11.262968
-0.111031,0.219333,11.239071
-0.082579,0.231704,11.229475
-0.093484,0.272597,11.156863
-0.125056,0.24185,11.090297
-0.092135,0.193662,10.955921
-0.066535,0.138927,10.745728
-0.039781,0.104808,10.596791
0.042894,0.046384,10.498482
0.026391,0.029874,10.435334
0.073911,0.044856,10.397721
0.145039,0.034899,10.36588
0.136265,0.104086,10.312882
0.185805,0.115727,10.286894
0.222731,0.1145,10.233717
0.335966,0.131145,10.169405
0.402366,0.131186,10.15179
0.469296,0.14278,10.121696
0.512659,0.148634,10.148861
0.509386,0.182302,10.205202
0.510918,0.203972,10.293198
0.519316,0.213516,10.414167
0.494496,0.238427,10.549579
0.440212,0.270483,10.70114
0.400439,0.288172,10.837055
0.420046,0.346236,10.94287
0.492845,0.419914,11.084955
0.512584,0.469119,11.226929
0.548159,0.465271,11.305126
0.597101,0.47352,11.390954
0.588198,0.451838,11.470709
0.672228,0.409053,11.5107
0.668597,0.366084,11.496374
0.576298,0.320541,11.484416
0.537427,0.30447,11.414776
0.392382,0.320076,11.324383
0.385052,0.278201,11.219828
0.315178,0.261289,11.103313
0.268925,0.20529,10.988713
0.277916,0.093371,10.88359
0.337699,-0.12995,10.765926
0.315293,-0.181354,10.683715
0.171277,-0.0566,10.659386
0.242877,-0.043164,10.638697
0.135183,0.106692,10.64824
0.238269,0.058,10.651006
0.223644,0.146105,10.65893
0.231406,0.134649,10.645836
0.224789,0.145003,10.662983
0.217405,0.103668,10.68438
0.383576,-0.165354,10.59578
0.37849,-0.144515,10.619055
0.523566,-0.233451,10.60485
0.455761,-0.143227,10.629998
0.427943,-0.065775,10.650877
0.459742,-0.02739,10.707753
0.532419,-0.110697,10.65837
0.501163,-0.01981,10.743228
0.315713,0.009646,10.710518
0.583886,-0.092563,10.731306
0.475205,0.045298,10.732371
0.39111,-0.013111,10.668473
0.379833,0.004625,10.615045
0.460075,-0.067003,10.664165
0.389448,-0.111534,10.56162
0.258283,0.005555,10.573137
0.494743,-0.052725,10.613153
0.414359,-0.058515,10.570302
0.304527,-0.029482,10.509044
0.569557,-0.145331,10.586975
0.576283,-0.169006,10.56816
0.299906,-0.068055,10.46932
0.721626,-0.336813,10.471242
0.882896,-0.303147,10.508935
0.469,-0.261668,10.405814
0.815941,-0.307688,10.41247
1.056161,-0.448773,10.460913
0.466762,-0.207286,10.409948
0.76431,-0.235409,10.437419
1.097179,-0.342124,10.459098
0.461818,-0.283227,10.384099
0.881836,-0.400471,10.368977
0.849111,-0.44941,10.331503
0.532366,-0.394718,10.266279
0.747804,-0.351753,10.23402
0.670168,-0.340689,10.138811
0.637239,-0.305655,10.068851
0.663248,-0.339001,10.003159
0.759413,-0.332552,9.93545
0.696387,-0.308875,9.856474
0.715652,-0.358342,9.747254
0.683115,-0.391182,9.616312
0.690446,-0.296392,9.561598
0.762795,-0.279787,9.51767
0.761314,-0.177941,9.495511
0.863442,-0.067729,9.493906
0.874638,-0.000696,9.575848
0.838838,0.078415,9.666505
0.773078,0.036702,9.717763
0.755819,-0.101605,9.716445
0.702172,-0.186835,9.754147
0.714306,-0.215736,9.721187
0.827645,-0.1458,9.710931
0.880566,-0.099964,9.687032
0.972885,-0.006903,9.647694
0.840214,-0.02273,9.582352
0.894624,0.0267,9.583658
0.969177,-0.124488,9.449724
1.07253,-0.214853,9.312279
1.038409,-0.203475,9.229293
1.054571,-0.228997,9.142728
0.96375,-0.185115,9.094712
1.013655,0.017552,9.015514
1.058425,0.221507,8.977845
1.05187,0.362722,8.939212
1.028453,0.168752,8.805721
1.082242,0.257846,8.751847
1.010934,0.267165,8.746698
1.047644,0.302779,8.718696
1.146245,0.451502,8.805324
1.09557,0.478922,8.8812
1.145812,0.616153,8.976555
1.234934,0.856841,9.09578
1.282424,0.91315,9.15744
1.282645,0.891268,9.108355
1.274316,0.724197,9.051814
1.187171,0.439487,8.966304
1.237901,0.327512,8.953562
1.482913,0.150284,8.848276
1.63741,0.130113,8.799823
1.505496,0.028505,8.77001
1.273407,0.184967,8.867077
1.133926,0.092499,8.904338
0.977922,0.02949,8.95406
1.142269,-0.045912,9.050701
1.236883,0.022147,9.079191
1.273937,-0.130248,9.042935
1.231116,-0.150118,9.167106
1.265528,-0.011613,9.225252
1.18719,-0.037645,9.191107
1.371496,0.05129,9.291224
1.315854,-0.10457,9.143984
1.240777,-0.204387,9.134129
1.362749,-0.180697,9.059562
1.418249,-0.218394,8.986913
1.450394,-0.075146,9.002717
1.407988,-0.046011,9.088406
1.468852,0.026054,9.106641
1.43947,0.09211,9.212144
1.374541,0.076538,9.28264
1.332419,0.034554,9.336727
1.300434,-0.017125,9.423397
1.276892,0.047432,9.4261
1.354764,0.095356,9.415166
1.409683,0.22337,9.457719
1.359795,0.311061,9.462128
1.413561,0.353702,9.441433
1.427402,0.310111,9.435613
1.41318,0.31344,9.373781
1.511139,0.187635,9.316545
1.586129,0.229839,9.293269
1.681002,0.182582,9.249662
1.573406,0.203872,9.246704
1.588498,0.299985,9.276489
1.535982,0.279578,9.29321
1.538209,0.311929,9.310998
1.527159,0.181561,9.219517
1.42184,0.011969,9.112917
1.368647,-0.056283,9.019332
1.277056,-0.189658,8.926617
1.233057,-0.043084,8.97016
1.211249,0.046528,8.918046
1.241736,0.043841,8.904654
1.272472,0.159984,8.958109
1.338632,0.129317,8.917372
1.387911,0.284272,8.998901
1.384402,0.338927,9.054252
1.441475,0.382715,9.066531
1.588185,0.83495,9.241641
1.601747,1.022156,9.301836
1.399538,0.936553,9.307397
1.523602,0.870296,9.386809
1.463508,0.702899,9.391486
1.509544,0.512952,9.471107
1.465129,0.303185,9.505484
1.384208,0.068062,9.511961
1.318444,-0.186672,9.448574
1.260743,-0.525939,9.347844
1.251716,-0.835261,9.349198
1.267204,-0.960382,9.092229
1.217243,-1.029019,8.992732
1.106443,-0.972491,8.90562
1.022021,-0.862042,8.849192
0.933876,-0.678529,8.968568
0.845465,-0.521145,9.056266
0.803051,-0.319094,9.101094
0.715993,-0.277921,9.007704
0.798379,-0.364722,8.889395
0.831678,-0.151844,8.895602
1.125657,-0.073719,8.803564
1.067814,0.004151,8.861162
1.113875,0.225956,8.957713
1.132601,0.392453,9.003722
1.214481,0.421808,9.058219
1.330391,0.458119,9.059239
1.332513,0.341782,9.059819
1.486916,0.262104,9.097262
1.571573,0.099862,9.071706
1.699029,-0.025751,9.082995
1.576649,-0.247153,9.048791
1.607309,-0.085117,9.072482
1.657017,-0.141963,9.002557
1.411835,-0.177214,8.989591
1.207976,-0.263126,8.949147
1.14004,-0.227614,8.954547
1.090791,-0.165424,9.064818
1.047503,-0.171799,9.143938
0.97932,-0.182848,9.1178
0.86867,-0.135195,9.121011
0.969467,-0.175998,9.008617
1.020058,-0.152464,8.874606
0.953529,-0.225918,8.795311
1.023015,-0.237204,8.765566
1.040319,-0.391014,8.731295
0.671085,-0.357205,8.838343
1.116442,-0.363783,8.753487
1.182575,-0.284289,8.822651
1.312697,-0.092533,8.931782
1.294738,0.032617,9.072114
1.232904,-0.062447,9.100098
1.201178,-0.1238,9.208803
1.236594,-0.428143,9.150127
1.164345,-0.48395,9.267218
1.069532,-0.432517,9.339504
0.852824,-0.394387,9.583671
1.400668,-0.259127,9.460377
1.338881,-0.156954,9.503831
0.976472,-0.195125,9.611383
1.038502,-0.43326,9.63888
0.847846,-0.642616,9.584974
0.764113,-0.636422,9.621142
0.843245,-0.632002,9.665265
0.629825,-0.590147,9.537607
0.572142,-0.482775,9.590246
0.552909,-0.371862,9.544029
0.74686,-0.322664,9.477783
0.64433,-0.248357,9.521204
0.685812,-0.222573,9.566473
0.645733,-0.157608,9.603851
0.685966,-0.116508,9.532674
0.560145,-0.245326,9.32173
0.58459,-0.279971,9.015653
0.704153,-0.303803,8.701701
0.942964,0.037101,8.476882
0.969046,0.14851,8.399241
0.989344,-0.003841,8.432608
1.269879,0.173597,8.386521
1.137676,0.038177,8.459029
1.091791,0.017409,8.544655
1.062537,0.109911,8.636456
0.845888,0.038636,8.691581
0.778852,0.065784,8.800019
0.619951,0.018205,8.929536
0.516477,0.017001,9.054877
0.324662,0.070598,9.231465
0.253395,0.126639,9.390374
0.311377,0.145547,9.546462
0.212864,0.012907,9.621891
0.42506,0.080272,9.585732
0.27805,0.291106,9.875876
0.107778,0.020898,10.028854
0.280896,0.128246,10.108172
0.106691,0.055531,10.18567
0.165999,-0.035096,10.245972
0.303253,-0.036817,10.194257
0.405288,-0.232631,10.129834
0.477852,-0.383676,9.969905
0.586614,-0.657997,9.683712
0.673433,-0.661242,9.508225
0.625287,-0.445676,9.517925
0.533813,-0.669938,9.448063
0.606992,-0.724951,9.367431
0.567462,-0.696801,9.279133
0.549203,-0.518068,9.148709
0.704104,-0.424165,8.977922
0.614325,-0.098615,8.897451
0.558437,0.161505,8.90778
0.549408,0.272712,8.913835
0.642507,0.437532,8.963311
0.684213,0.560948,9.124318
0.786092,0.725209,9.300597
0.87782,0.782957,9.508941
0.969721,0.801879,9.641099
1.035263,0.717781,9.816409
1.045805,0.633872,9.953989
1.018788,0.4398,10.043713
0.997543,0.290521,10.138571
0.938244,0.018955,10.11915
0.855945,-0.284755,10.0425
0.855521,-0.442573,9.961315
0.861692,-0.559681,9.832046
0.828853,-0.590633,9.790362
0.945703,-0.460168,9.639319
0.896796,-0.304472,9.626566
0.76542,-0.176211,9.474901
0.588351,0.233797,9.426868
0.661093,0.453173,9.411014
0.632585,0.703042,9.437772
0.646053,0.973493,9.515949
0.656102,1.232767,9.664331
0.728146,1.151024,9.668914
0.830834,1.173612,9.751943
0.912241,1.1934,9.829537
0.937371,1.131259,9.81893
1.143299,1.027567,9.763617
1.168463,0.956287,9.784788
1.088067,0.941757,9.855827
1.045939,0.883618,9.907978
1.130881,0.979827,9.97856
1.172004,1.059261,10.0022
1.102277,1.079216,10.082582
1.093237,0.970469,10.007035
1.091241,0.855711,9.933725
0.970359,0.537919,9.823516
0.811469,0.211577,9.657674
0.687242,-0.184076,9.426993
0.549157,-0.307366,9.3131
0.304475,-0.209288,9.2463
0.116161,-0.008405,9.254083
-0.097148,0.310349,9.356001
-0.244356,0.70488,9.450245
-0.350515,1.138272,9.264063
0.149686,0.519427,8.884252
0.116649,0.366306,8.735297
0.144112,-0.109197,8.537978
-0.035701,-0.293548,8.440063
-0.14617,-0.327787,8.47865
-0.138061,-0.304552,8.622311
-0.093303,-0.243668,8.767855
-0.035683,-0.162722,8.894912
0.010181,-0.070873,8.931462
0.027415,0.010708,8.967925
0.041147,0.100089,8.966485
0.072722,0.169982,8.964916
0.06585,0.176361,8.884076
0.097909,0.10835,8.828869
0.231141,-0.006401,8.793129
0.19139,-0.060285,8.750947
0.173618,-0.067832,8.75514
0.166974,-0.118222,8.734494
0.114084,-0.117214,8.686683
0.013272,-0.117372,8.651379
-0.100822,-0.06695,8.591412
-0.186008,0.021423,8.603904
-0.227537,0.131091,8.605936
-0.167243,0.310957,8.598574
0.005066,0.377087,8.602695
0.217947,0.528278,8.629453
0.317171,0.598624,8.713781
0.500547,0.57146,8.747176
0.579333,0.626731,8.850671
0.657629,0.600572,8.965946
0.680786,0.606542,9.056559
0.671181,0.555765,9.134408
0.660746,0.495613,9.222365
0.633066,0.436917,9.281132
0.59613,0.343979,9.289233
0.475795,0.28701,9.322306
0.382068,0.265542,9.272127
0.337917,0.252686,9.227711
0.268441,0.323383,9.162883
0.150313,0.274464,9.058428
0.120849,0.27072,8.986205
0.063759,0.206809,8.926971
0.024351,0.032637,8.805612
0.13108,0.012851,8.726572
0.043732,-0.004262,8.662209
-0.32646,0.064375,8.642581
-0.579343,0.168754,8.76536
-0.745539,0.1735,8.774699
-0.801224,0.09213,8.771323
-0.767997,-0.031601,8.839335
-0.699329,-0.335893,8.675477
-0.809438,-0.281123,8.800944
-0.988717,-0.242698,8.936929
-1.068906,-0.163171,9.013071
-0.903824,-0.112464,9.036312
-0.699239,-0.015758,9.035685
-0.506194,-0.070351,9.031498
-0.452893,-0.082915,9.039099
-0.496048,-0.090956,9.278226
-0.319291,-0.156044,9.142904
-0.310001,-0.36922,9.284815
-0.339918,-0.256615,9.468923
-0.047897,-0.486273,9.297583
0.040091,-0.472182,9.519824
0.247813,-0.655938,9.425404
0.254073,-0.726924,9.488225
0.26332,-0.908369,9.530506
0.391872,-1.039976,9.50004
0.381681,-1.04122,9.533401
0.297512,-0.952982,9.608342
0.410496,-0.92414,9.491959
0.222089,-0.825084,9.476093
-0.126651,-0.575081,9.792146
0.118104,-0.51462,9.345013
0.04568,-0.596937,9.601454
-0.174488,-0.432043,9.288644
-0.149091,-0.503525,9.293958
-0.007227,-0.35116,9.090655
-0.121175,-0.406285,9.253144
-0.507799,-0.31738,9.256407
-0.683275,0.240624,9.239433
-0.878796,0.487426,9.415657
-0.646717,0.124866,8.892298
-0.782485,0.332672,8.962719
-0.81009,0.265082,8.702471
-1.11272,0.081388,8.746917
-1.36445,0.045644,8.763082
-1.375239,-0.119984,8.707554
-1.311388,-0.248515,8.838718
-1.457476,-0.073295,8.82024
-1.584709,-0.084565,9.181053
-1.248913,-0.13229,9.16039
-0.860291,-0.101334,9.285732
-0.761674,-0.521595,9.11977
-0.691581,-0.251445,9.222598
-0.503055,-0.298216,9.265624
-0.294259,-0.48869,9.223923
-0.27454,-0.468523,9.150493
-0.463291,-0.706827,9.179851
-0.429078,-0.505453,9.317138
-0.055266,-0.366445,9.038328
0.042613,-0.474776,8.779411
-0.350798,-0.211376,9.293417
-0.22786,-0.014009,9.082912
-0.098022,-0.170414,8.967511
-0.298837,-0.139412,9.148491
-0.159935,-0.177635,8.921414
-0.048063,-0.149934,8.97179
-0.162658,-0.162287,8.924053
-0.225751,-0.31853,9.06956
-0.309108,-0.312175,9.197282
-0.342778,-0.615963,9.060662
-0.628086,-0.897562,9.244305
-0.747726,-1.273527,9.076116
-1.152398,-1.264362,9.13872
-1.34593,-0.976913,9.262549
-1.651405,-1.165954,9.069541
-1.977757,-0.814338,9.388017
-2.111873,-0.858531,9.429335
-2.191833,-0.924896,9.245099
-2.328022,-1.149802,9.057404
-2.371044,-1.495727,8.732895
-2.403405,-1.2731,8.671398
-2.55428,-1.135352,8.706421
-2.641357,-1.234358,8.600332
-2.738021,-0.839462,8.689831
-2.479836,-0.838606,8.610007
-2.315863,-0.846378,8.763047
-2.143619,-0.873062,8.735606
-2.229596,-0.756095,8.918476
-2.040446,-0.65666,9.046173
-1.829387,-0.516094,9.283737
-1.674987,-0.834554,9.601585
-1.332408,-0.658482,9.649413
-1.210322,-0.688121,9.943481
-1.005881,-0.715285,10.147931
-1.03615,-0.895061,10.489497
-0.903935,-0.90823,10.781524
-0.79823,-1.195318,10.991165
-0.643587,-1.407379,11.11543
-0.711579,-1.592284,11.220141
-0.596331,-1.292445,11.21465
-0.609707,-1.196198,11.20696
-0.594144,-0.965341,11.265976
-0.608906,-0.607068,11.39041
-0.685603,-0.491731,11.334069
-0.800209,-0.035825,11.297431
-1.05249,-0.084393,11.298516
-1.102078,0.00476,11.172321
-1.326909,-0.02292,11.01753
-1.524735,0.085394,10.878585
-1.657485,0.120705,10.757084
-1.699694,-0.043068,10.656598
-1.737278,-0.213474,10.569736
-1.659278,-0.235265,10.442639
-1.426122,-0.344915,9.305612
-1.597366,0.019472,10.303424
-1.654437,-0.011128,9.974117
-1.582182,0.218422,10.205994
-1.562649,0.275701,10.192719
-1.487495,0.22299,10.129242
-1.317764,0.158176,10.157431
-1.200961,-0.047168,10.20783
-1.129172,-0.427737,10.082262
-0.968619,-0.606413,10.130109
-1.165305,-0.759886,10.058098
-2.192465,-1.786683,7.820592
-0.698018,-0.844807,10.04512
-0.565378,-0.313265,11.068711
-1.770669,-0.45619,10.885198
-1.432399,-0.848836,10.743896
0.386341,-1.260879,10.295899
0.613898,-1.282514,9.837271
0.38594,-1.263875,9.709159
0.386533,-1.357386,9.758105
0.355578,-1.401362,9.839508
0.085292,-1.324143,9.942681
-0.159138,-1.232223,10.120084
-0.688655,-1.215664,10.206348
-0.853938,-1.337257,10.292489
-1.449699,-1.423922,10.276856
-1.470875,-1.521948,10.238504
-1.466652,-1.521334,10.082605
-2.064584,-1.701307,10.07247
-2.229548,-1.59808,9.8942
-2.105035,-1.016255,9.767454
-1.525528,-0.71658,9.821793
-0.582745,-0.745324,9.605703
-0.204836,-0.635255,9.374312
-0.286048,-0.428544,9.536957
-0.543052,-0.298884,9.889845
-0.786002,-0.267827,10.203906
-1.054555,-0.263323,10.426482
-0.938137,-0.449074,10.480903
-0.779358,-0.669682,10.408503
-0.599992,-0.876266,10.281104
-0.426163,-1.078347,10.218007
-0.269657,-1.204081,10.130025
-0.175453,-1.203483,10.020237
-0.041451,-1.195419,9.911551
-0.051157,-1.053707,9.804989
-0.154181,-0.834778,9.799744
-0.239083,-0.567689,9.850194
-0.294422,-0.34295,9.961616
-0.310451,-0.130409,10.010742
-0.310301,-0.063542,10.023971
-0.317352,-0.074444,9.958623
-0.365936,-0.06468,9.913897
-0.315474,-0.021107,9.926546
-0.235509,0.076674,9.932825
-0.173812,0.155258,9.953985
-0.062511,0.28733,9.976342
-0.23089,0.547098,9.48493
-0.83238,1.212554,6.992564
-0.292909,1.552109,10.161885
0.336229,-0.146815,10.530046
0.08887,-0.597163,10.262446
-0.256694,-0.628968,9.958175
-0.494855,-0.436184,9.829168
-0.603236,-0.189109,9.827122
-0.894213,0.07345,9.797232
-1.147452,0.201425,9.736492
-1.018673,0.215437,9.617562
-0.985551,0.214415,9.44871
-1.143067,0.233876,9.321965
-1.27608,0.229644,9.271265
-1.302839,0.238344,9.176957
-1.356901,0.274453,9.092058
-1.438182,0.355215,9.044244
-1.395256,0.440364,9.026238
-1.33713,0.304332,8.368028
-1.1987,0.31438,8.634625
-1.219256,0.492551,8.884219
-4.0641,0.366077,7.432474
-5.066611,-0.108923,8.189003
-2.244021,0.200981,11.071104
1.472902,0.296467,11.476957
2.635754,-0.521279,10.099336
1.585574,-0.705854,10.187573
0.688643,-0.589241,10.527297
0.076103,-0.437177,10.85951
-0.874473,-0.233827,10.955456
-1.789488,-0.086532,10.760241
-1.884251,-0.12662,10.264857
-1.420588,-0.171874,9.703145
-1.02051,-0.188214,9.003133
-1.000127,-0.09882,8.552181
-1.335098,0.011977,8.392463
-1.77989,0.140183,8.464515
-2.264779,0.311871,8.581402
-2.693879,0.496493,8.746416
-3.043411,0.740105,8.947955
-4.337098,2.243898,10.189169
-5.252965,2.916112,11.268372
-3.500106,1.736915,9.866271
-1.370175,0.007732,8.105294
-0.250255,-0.765796,7.249935
-0.350821,-0.500942,7.575197
-1.125528,0.375055,8.571577
-1.853557,1.414981,9.572714
-2.335579,1.852246,10.229595
-1.927379,1.521255,10.219186
-1.325657,1.018673,10.082544
-0.998645,0.632759,10.15864
-0.891457,0.501595,10.427754
-0.707571,0.605174,10.534901
-0.758477,0.575143,10.909493
-0.768119,0.500808,11.126011
-0.843983,0.322533,11.409905
-0.877793,0.053269,11.699522
-1.013158,-0.312465,11.950389
-0.95326,-0.442454,11.918385
-1.002655,-0.560879,11.97613
-1.093454,-0.646702,11.949944
-0.949422,-0.707342,11.704077
-0.874367,-0.878085,11.343196
-0.871125,-1.124108,11.079548
-1.026139,-1.388885,10.842568
-1.215282,-1.581528,10.559957
-1.264151,-1.804219,9.880636
-1.625289,-1.179147,10.086351
-1.700293,-0.518983,10.367074
-1.77095,0.013651,10.496402
-1.817969,0.310153,10.415202
-1.761396,0.404489,10.239148
-1.566028,0.282665,10.041281
-1.376078,0.140819,9.880372
-1.317327,0.119589,9.817194
-1.36333,0.213671,9.736262
-1.457835,0.376625,9.67954
-1.717756,0.714253,9.594033
-0.837964,0.741904,9.642376
-0.621153,0.957601,9.518514
-0.476073,1.004085,9.573059
-0.633514,0.918207,9.732675
-0.705721,0.804352,9.947925
-0.677022,0.666457,10.221719
-0.821022,0.621047,10.558085
-1.178252,0.547006,10.773305
-1.231503,0.427801,10.853214
-1.094272,0.332594,10.863837
-1.071618,0.256299,10.715192
-1.237911,0.111987,10.54076
-1.143367,-0.173878,10.334506
-1.036076,-0.533469,10.117045
-0.95495,-0.767822,10.03507
-1.010092,-0.795215,9.995193
-1.013352,-0.677656,10.02141
-0.989984,-0.408756,9.945169
-0.880097,-0.252404,9.932509
-0.783085,0.004783,9.85445
-0.716667,0.21096,9.76215
-0.62451,0.449202,9.62138
-0.540292,0.656352,9.560807
-0.436131,0.756982,9.564498
-0.31844,0.793716,9.577873
-0.187047,0.798506,9.679697
-0.137868,0.794492,9.731585
-0.126686,0.834621,9.706378
-0.082836,0.82605,9.605301
-0.003072,0.905847,9.463667
0.050294,0.955898,9.304867
-0.018552,0.973782,9.176172
-0.140045,1.002828,9.062754
-0.260102,1.041582,9.086961
-0.364296,1.118668,9.194897
-0.304482,1.1907,9.298638
-0.295157,1.241212,9.393173
-0.285396,1.222217,9.505163
-0.177156,1.223679,9.536432
-0.063692,1.207566,9.610652
-0.02972,1.275385,9.647885
-0.081609,1.381314,9.741842
-0.128758,1.479591,9.853861
-0.026248,1.670346,9.879473
0.185324,1.89065,9.82787
0.324339,1.952126,9.856996
0.665755,2.012578,9.84726
0.610485,2.019509,10.000905
0.39931,2.106977,10.216971
0.023579,2.342038,10.351984
-0.24294,2.290781,10.647081
-0.413049,2.10286,10.780306
-0.643987,1.892636,10.742134
-0.036802,1.68723,10.576248
0.172061,1.43467,10.41886
0.096671,1.06865,10.418827
-0.348446,0.565261,10.545025
-0.738201,0.136216,10.655183
-0.901097,-0.577805,10.686637
-0.867102,-0.324716,10.578651
-0.809763,-0.043017,10.517883
-0.901167,0.257764,10.446481
-0.509514,0.402441,10.523227
0.058716,0.674934,10.249499
0.282247,0.647173,10.072454
0.393092,0.637873,9.892228
0.332227,0.628744,9.794025
0.195138,0.55047,9.799011
0.116937,0.599633,9.668175
-0.116042,0.613193,9.681918
-0.284492,0.678699,9.695163
-0.350718,0.685802,9.73338
-0.467953,0.737138,9.638263
-0.65941,0.705162,9.628213
-0.662352,0.713286,9.594229
-0.903848,0.711821,9.565674
-1.076653,0.637963,9.656351
-1.093608,0.739391,9.404185
-2.73735,1.935452,9.586621
-0.362752,-0.068822,8.836506
-0.666555,-0.190006,8.852851
-1.168042,-0.395752,9.173499
-1.638522,-0.433245,9.28317
-1.878533,-0.441055,9.814896
-2.101158,-0.310718,9.947571
-2.143878,-0.374608,9.892109
-2.168465,-0.537765,9.595408
-1.544232,-0.604676,8.762671
-0.950786,-0.622521,7.510061
-1.207351,0.375934,6.867801
-1.725414,-0.598511,8.467438
-5.594947,-0.664378,13.480692
-5.807951,-0.816783,13.991861
-3.305117,-1.492925,11.877963
-1.996124,-1.395762,11.099363
-1.955193,-1.487755,9.727637
-1.86619,-0.846587,9.925261
-1.369008,-0.791138,10.593467
-1.345189,-1.383787,9.384794
-1.878015,-1.573554,9.134224
-2.439909,-1.503659,8.668007
-2.277925,-1.906705,8.714968
-2.253482,-1.760598,8.870335
-2.071668,-1.595601,9.260602
-1.665717,-1.200194,9.954537
-1.536544,-0.715609,9.826127
-1.217259,-0.726919,9.686583
-0.939106,-0.560526,9.615506
-0.831049,-0.369812,9.854145
-0.889932,-0.064423,10.052415
-0.990122,0.115675,10.130647
-0.92488,-0.190023,10.275736
-0.989205,-0.23377,10.043844
-1.106943,-0.118785,10.012819
-1.122784,0.017981,9.945512
-0.916309,-0.116845,9.853563
-0.809959,-0.263134,9.87924
-1.602996,-0.351427,9.887887
-1.913245,-0.515447,10.05976
-1.660393,-0.478315,10.427884
-1.366335,0.170308,10.443758
-0.643713,0.077498,10.604692
0.024451,0.231373,10.536958
0.471177,0.144165,10.659506
0.756759,0.189043,10.583495
0.636842,0.257853,10.653338
0.50484,0.22755,10.596078
0.150323,0.490594,10.350415
-0.273094,0.561905,10.274703
-0.579065,0.469298,10.126013
-0.778722,0.241194,10.043562
-0.904642,0.426747,9.649845
-0.907317,0.014011,9.661787
-0.836254,0.043805,9.569173
-0.613756,-0.306754,9.760486
-0.390223,-0.48502,9.96689
-0.253644,-0.520347,10.082817
-0.053123,-0.949968,10.30555
-0.097023,-0.813589,10.08348
-0.108038,-0.733641,10.231264
-0.132272,-0.535802,10.400044
-0.16293,-0.331482,10.561914
-0.191301,-0.068832,10.588649
-0.173138,0.040335,10.61938
-0.270602,0.073229,10.517939
-0.35594,0.091846,10.435351
-0.434462,0.010592,10.385827
-0.425053,-0.116222,10.34191
-0.251661,-0.248911,10.240533
-0.213121,-0.40148,10.125226
-0.393927,-0.509391,10.082907
-0.488289,-0.509185,10.067748
-0.552425,-0.428401,10.092148
-0.548376,-0.372352,10.130462
-0.603913,-0.306902,10.206118
-0.719653,-0.251214,10.203067
-0.910134,-0.167349,10.123722
-1.111261,-0.04757,9.993219
-0.962477,-0.008232,10.089484
-0.972918,-0.100609,10.203471
-1.055655,-0.438638,10.467405
-0.919087,-0.489295,10.429985
-0.692303,-0.935532,10.312633
-0.605589,-1.489149,10.2873
-0.508032,-2.034605,10.148668
-0.616909,-2.314979,9.955259
-0.501953,-2.52903,9.722813
-0.515619,-2.52957,9.462356
-0.564097,-2.587316,9.447247
-0.51999,-2.556324,9.367839
-0.467286,-2.444115,9.324367
-0.36466,-2.359109,9.382502
-0.381403,-2.277675,9.495368
-0.347586,-2.219535,9.614511
-0.309557,-2.244963,9.760128
-0.289381,-2.294658,9.923245
-0.164907,-2.271092,10.010682
-0.074721,-2.260864,10.036671
-0.10511,-2.211511,10.030451
-0.16824,-2.162391,10.112197
-0.237309,-2.049824,10.124773
-0.306274,-1.920671,10.11723
-0.417734,-1.747952,10.045748
-0.479099,-1.602417,10.045581
-0.547317,-1.526956,9.996215
-0.557976,-1.483629,9.919241
-0.603145,-1.537149,9.845479
-0.629679,-1.681813,9.722846
-0.589397,-1.90792,9.55712
-0.529058,-2.159929,9.388551
-0.448475,-2.43517,9.273524
-0.42044,-2.730214,9.182986
-0.455112,-2.959722,9.064001
-0.489531,-3.108276,8.953403
-0.557914,-3.156266,8.863159
-0.585881,-3.175903,8.816928
-0.561776,-3.231515,8.704809
-0.583659,-3.32642,8.675013
-0.611397,-3.424499,8.586502
-0.618783,-3.371014,8.470731
-0.609427,-3.234173,8.389484
-0.584482,-3.011012,8.226842
-0.533355,-2.813297,8.006915
-0.54571,-2.68474,7.644618
-0.567842,-2.635851,7.280831
-0.515225,-2.679984,6.946012
-0.42885,-2.829229,6.741337
-0.272768,-3.049575,6.748249
-0.158008,-3.289379,6.905915
-0.071255,-3.415798,7.113396
-0.017001,-3.383015,7.408259
-0.064661,-3.220395,7.955097
-0.227878,-2.902226,8.811153
-0.190554,-2.364276,9.638162
0.028129,-1.644127,10.202869
0.222593,-0.891485,10.585264
0.179088,-0.155848,10.865739
0.066154,0.387136,11.26697
0.050962,0.794672,11.42211
0.206473,0.968933,11.554615
0.493791,1.025451,11.432789
0.564859,1.024982,11.286358
0.548695,0.954305,11.187316
0.337585,0.838314,11.063512
0.102766,0.699493,10.886606
-0.125943,0.456741,10.684052
-0.315339,0.002142,10.447583
-0.442864,-0.579701,10.212594
-0.474953,-1.131832,9.941217
-0.423844,-1.13387,9.465247
-0.469828,-1.774374,10.092157
-0.398777,-1.456945,10.529127
-0.658815,-1.071908,10.874709
-1.163523,-0.393326,11.143881
-1.752073,-0.231237,12.306707
-1.910461,0.422952,12.67544
-1.348772,1.53472,11.746793
-0.603744,1.913455,10.348522
0.427299,2.220768,8.56318
0.767922,2.107577,7.943323
0.885357,1.850837,7.8318
1.041924,1.7955,7.833229
0.763379,0.748691,8.138393
0.882079,0.553367,8.279099
1.082024,0.513102,8.405895
1.193546,0.600634,8.686712
1.46235,0.76732,8.835477
1.696845,1.157181,9.136014
1.802264,1.658069,9.40539
1.885051,1.906704,9.534036
0.920922,1.85705,10.630122
0.994695,1.673282,10.719562
0.768411,1.606667,10.726334
0.55142,1.110789,10.776878
0.710922,0.65061,10.046601
0.443485,0.195728,9.716549
0.373783,-0.325135,9.554522
0.258308,-0.545732,9.469424
0.023153,-0.866804,9.514559
-0.272461,-1.219122,9.604554
-0.457708,-1.547746,9.642282
-0.561489,-1.702628,9.661196
-0.591162,-1.725219,9.54666
-0.430665,-1.619909,9.565077
-0.313083,-1.36046,9.637503
0.059882,-1.139133,9.540448
0.086966,-0.775741,9.704916
0.052677,-0.592812,9.790719
0.034314,-0.548501,9.742947
-0.111592,-0.666534,9.700796
-0.246106,-0.654908,9.641027
-0.233838,-0.767826,9.570292
-0.200223,-0.865119,9.443391
-0.272585,-0.955774,9.355426
-0.278612,-1.035162,9.157945
-0.250817,-1.084365,8.888679
-0.31648,-1.115839,8.546917
-0.161476,-1.192883,8.17323
-0.047622,-1.289357,7.764918
-0.016596,-1.411935,7.413106
-0.029633,-1.449139,7.155693
0.031845,-1.32583,6.937855
-0.231517,-1.201128,6.831602
-0.557028,-1.18205,6.716045
-0.894688,-1.211619,6.360719
-1.117787,-1.633723,5.679667
-0.955479,-1.538788,5.612142
-0.892705,-1.290685,5.610876
-1.048266,-1.178398,5.566913
-1.010571,-1.01704,5.641052
-0.985729,-0.870721,5.717412
-1.127485,-0.703796,5.794087
-1.223901,-0.409742,6.163691
-1.19104,-0.099556,6.276222
-0.90815,0.193547,6.224785
0.288722,0.341007,5.827616
0.599312,0.51068,6.331514
0.663212,-0.667825,7.050639
0.500729,-2.824056,8.805986
-0.752023,-8.350969,14.938331
-2.443454,-11.788976,21.161143
-3.82599,-9.344519,23.202537
-4.370478,-5.420706,23.29224
-4.445679,-4.568829,25.601978
-3.743949,-4.237129,19.434389
-1.537034,-2.777157,13.870441
0.108624,-1.123179,10.183749
0.770782,-0.238081,8.07994
1.144195,0.099283,7.588882
1.679371,-0.153321,7.952244
1.265559,-0.778744,9.096368
-0.370746,-1.061609,10.606809
-1.225482,-0.177849,11.424668
-1.289079,1.079087,11.44807
-0.306188,2.508831,12.002651
0.118545,1.92533,8.362157
-0.037696,2.205947,8.231569
-0.218,2.509998,8.976451
-0.552013,2.532588,9.978823
-0.824798,2.257026,11.034933
-0.865108,1.584856,11.327565
-0.786616,0.568268,10.466964
-0.567777,0.198407,10.389486
-0.215503,0.264382,10.608743
-0.081666,0.288411,10.437497
-0.349971,0.277114,10.096539
-0.549097,0.36893,10.228821
-0.525469,0.039879,9.509451
-0.312083,-0.223287,8.633944
-0.187885,0.142355,9.09614
-0.341165,0.489323,9.537699
-0.533606,0.875738,9.897083
-0.497495,1.52555,11.014083
-0.417996,1.1412,9.631052
-0.330084,1.232968,9.104939
-0.294995,1.891034,9.635883
-0.268787,2.421202,10.020649
-0.255948,2.730159,10.258253
0.64448,3.480705,9.060408
1.173128,1.946801,8.800898
0.819768,1.711134,9.580803
0.195754,1.724161,10.330675
-0.139089,1.455458,10.874629
-0.353371,1.122161,11.191743
-0.61288,0.893159,11.150304
-0.781025,0.830291,10.915656
-0.649319,0.874726,10.667062
-0.429159,0.948517,10.585627
-0.243328,1.170095,10.530473
-0.315401,1.374396,10.595015
-0.454496,1.57534,10.772434
-0.443325,1.629294,10.885612
-0.406076,1.598526,11.067611
-0.473031,1.491878,11.079622
-0.559001,1.500911,11.317004
-0.577553,1.549264,11.723761
-0.752496,1.654483,12.32842
-0.976075,1.408051,11.79122
-1.001499,1.234098,11.543666
-0.823148,1.222167,11.681597
-0.583962,1.398506,11.906981
-0.447326,1.486539,12.341374
-0.614032,1.420128,12.193319
-0.832429,1.318325,11.827462
-0.665898,1.121794,11.690686
-0.35039,1.086778,11.40694
0.01576,1.179794,11.203162
0.162405,1.459903,10.874464
0.252773,1.024799,10.730739
0.287154,0.096965,10.711569
0.317409,-0.728204,11.05897
-0.026595,-1.52997,11.474639
-0.457648,-2.037294,11.610534
-0.714672,-1.930347,11.365504
-1.993827,-1.605456,10.834034
-1.835594,-1.604079,10.250608
-1.059305,-1.721956,9.63848
-0.644635,-1.853679,9.126153
-0.329921,-1.881281,8.592991
0.026983,-1.922342,8.07777
0.296684,-1.954341,7.664983
0.173257,-2.078671,7.363282
0.09135,-2.123614,7.132138
0.040328,-2.215167,6.919591
-0.042324,-2.220118,6.849165
-0.117396,-2.17313,6.82932
-0.153091,-1.939896,6.850359
-0.144927,-1.933311,6.996503
-0.224267,-2.687226,7.612338
-0.246058,-3.158633,8.146599
-0.237727,-3.03298,8.43209
-0.236377,-2.637971,8.581432
-0.14576,-2.264688,8.439243
0.059373,-1.98429,8.16361
0.352197,-1.877254,8.176196
0.594261,-1.852581,8.313634
0.762467,-1.967576,8.336904
0.854634,-2.472078,8.53113
0.828015,-3.058377,8.848451
0.619722,-3.434412,9.127281
0.328284,-3.581616,9.196549
0.006131,-3.62208,9.112596
-0.242932,-3.572837,9.10766
-0.608976,-3.424078,8.838245
-0.837943,-3.558275,8.911201
-0.803989,-3.602934,8.935581
-0.87118,-3.576681,8.745071
-0.787585,-3.629049,8.767382
-0.602252,-3.688745,8.802826
-0.524809,-3.836064,8.807695
-0.370436,-3.993403,8.900999
-0.276198,-3.989968,8.852466
-0.275647,-3.949025,8.769498
-0.256927,-3.904795,8.735429
-0.333039,-3.87818,8.660151
-0.348455,-3.869949,8.619862
-0.334712,-3.941979,8.633905
-0.311077,-3.973961,8.653955
-0.262198,-4.029699,8.675287
-0.158145,-4.102312,8.686648
-0.093421,-4.139638,8.677591
-0.063304,-4.115962,8.654963
-0.056732,-4.092222,8.609357
-0.093483,-4.108801,8.582221
-0.100595,-4.013936,8.46713
-0.204136,-4.000832,8.462636
-0.303964,-3.932493,8.366131
-0.313308,-3.893504,8.290705
-0.322086,-4.077812,8.419764
-0.207226,-4.199557,8.466736
-0.160281,-4.316021,8.54214
-0.172569,-4.395593,8.613112
-0.171469,-4.418809,8.593936
-0.198423,-4.449347,8.615728
-0.222198,-4.416866,8.564555
-0.209694,-4.425524,8.610288
-0.12633,-4.352349,8.436805
-0.176391,-4.488439,8.612564
-0.064167,-4.383152,8.543029
-0.107398,-4.460404,8.6284
-0.183671,-4.700941,8.802001
-0.06281,-4.787715,8.874139
-0.155882,-4.81138,8.9065
-0.269608,-4.742926,8.858343
-0.286022,-4.749828,8.867114
-0.319482,-4.633291,8.78598
-0.188076,-4.506873,8.65463
-0.190622,-4.534377,8.664732
-0.128836,-4.599045,8.723367
-0.095419,-4.545589,8.68527
-0.032984,-4.563784,8.716786
-0.006871,-4.570041,8.719794
-0.016198,-4.58897,8.735419
-0.037819,-4.554993,8.722559
-0.127584,-4.574036,8.731027
-0.163416,-4.5369,8.708005
-0.159772,-4.508687,8.682474
-0.131581,-4.484593,8.64329
-0.064669,-4.468511,8.623129
0.009522,-4.462345,8.604084
0.058608,-4.461276,8.613205
0.068722,-4.462983,8.599698
0.075061,-4.49534,8.600455
0.074569,-4.484713,8.637028
0.036848,-4.492454,8.597403
-0.024907,-4.489253,8.586007
-0.031382,-4.502642,8.60134
-0.018091,-4.542607,8.614705
0.013375,-4.575518,8.64435
-0.013468,-4.631141,8.653429
-0.009814,-4.667892,8.685133
-0.007009,-4.679485,8.668955
0.027907,-4.707846,8.68374
0.041224,-4.7009,8.680537
0.047897,-4.701539,8.662282
0.049104,-4.702997,8.679614
0.043712,-4.767513,8.688386
0.036192,-4.784204,8.711947
0.021089,-4.807629,8.708034
0.019942,-4.851329,8.701485
0.001808,-4.878243,8.701214
0.003707,-4.859733,8.690574
0.058692,-4.856394,8.653834
0.155775,-4.858395,8.635772
0.075515,-4.892174,8.63263
0.03048,-4.898648,8.623441
0.024524,-4.911137,8.630689
-0.032919,-4.910645,8.591823
-0.048631,-4.89989,8.559342
-0.053488,-4.876432,8.501302
-0.08938,-4.868497,8.468502
-0.13165,-4.866941,8.446975
-0.105478,-4.851068,8.409973
-0.057278,-4.849454,8.358122
-0.000193,-4.894579,8.361331
0.022383,-4.879066,8.304965
0.005663,-4.86395,8.240698
-0.035431,-4.812207,8.164869
-0.005354,-4.827169,8.170647
0.209566,-4.352218,7.761086
0.27109,-4.377662,7.614716
0.061728,-4.543058,7.913952
-0.075052,-4.339465,7.552695
-0.250382,-4.066689,7.293997
-0.279819,-4.189368,7.417941
-0.257606,-4.771396,7.882276
-0.184583,-5.517492,8.480572
-0.180628,-6.023188,8.760915
0.027724,-6.063719,8.739956
-0.1411,-6.032569,8.709844
-0.347496,-5.782554,8.548142
-0.404996,-5.399616,8.300112
-0.283625,-5.126858,8.171029
-0.156669,-5.039426,8.11393
-0.095348,-4.916366,8.016673
0.067772,-4.927497,8.074838
0.365061,-5.098979,8.20619
-0.069804,-5.240458,8.330089
-0.462959,-5.387528,8.41826
-0.433218,-5.361761,8.47046
-0.270791,-5.448025,8.587164
-0.239208,-5.479929,8.573519
-0.215169,-4.936951,8.406194
-0.358528,-4.934825,8.101243
-0.933263,-4.937415,8.044976
-0.518692,-4.834201,8.11329
-0.498825,-4.985202,8.092858
-0.301134,-5.104907,8.383354
0.014299,-5.137953,8.438276
0.115778,-5.255486,8.539941
0.098905,-5.355603,8.659297
-0.171545,-5.304947,8.574929
-0.487082,-5.05197,8.415161
-0.670513,-4.862179,8.332523
-0.645649,-4.725726,8.224922
-0.424505,-4.673344,8.27811
-0.257185,-4.727984,8.365649
-0.164527,-4.888433,8.516463
-0.079898,-4.951086,8.531041
-0.088122,-4.946226,8.567022
-0.183447,-4.802091,8.576114
-0.355388,-4.642236,8.562383
-0.464293,-4.526441,8.518307
-0.485847,-4.499625,8.557636
-0.450312,-4.556193,8.599327
-0.370304,-4.633531,8.692608
-0.280435,-4.675637,8.70709
-0.215372,-4.673237,8.720548
-0.195544,-4.626422,8.693474
-0.231697,-4.602759,8.669881
-0.244793,-4.572495,8.641039
-0.267052,-4.543684,8.577413
-0.277944,-4.553981,8.539519
-0.308923,-4.575995,8.523624
-0.217094,-4.590928,8.4886
-0.19511,-4.667319,8.527674
-0.192484,-4.742013,8.555515
-0.188292,-4.774033,8.56766
-0.24076,-4.824261,8.580785
-0.238123,-4.854692,8.603052
-0.294953,-4.944896,8.565189
-0.313575,-4.967953,8.532014
-0.295894,-4.964611,8.504833
-0.235588,-4.959291,8.51624
-0.198849,-4.984224,8.571227
-0.129325,-5.001261,8.60599
-0.09702,-5.018325,8.648307
-0.09668,-5.048497,8.675891
-0.123824,-5.082148,8.704687
-0.168309,-5.076523,8.717697
-0.240494,-5.095741,8.717193
-0.271821,-5.104377,8.706437
-0.264125,-5.119695,8.690881
-0.250053,-5.139016,8.674583
-0.224039,-5.130644,8.653734
-0.155054,-5.110623,8.64116
-0.109449,-5.10659,8.59276
-0.094364,-5.074478,8.582373
-0.07599,-5.118492,8.554597
-0.078126,-5.116555,8.538434
-0.084554,-5.125842,8.517379
-0.108777,-5.137713,8.48623
-0.104337,-5.163792,8.495587
-0.110608,-5.173713,8.441759
-0.111037,-5.20811,8.417935
-0.117763,-5.212958,8.382477
-0.139074,-5.225031,8.348636
-0.141644,-5.230848,8.364696
-0.116104,-5.180718,8.328782
-0.108283,-5.149777,8.272325
-0.076921,-5.184141,8.204857
-0.057883,-5.197095,8.174127
-0.059599,-5.216391,8.174774
-0.058732,-5.25671,8.190096
-0.066727,-5.307258,8.184563
-0.035773,-5.351252,8.112634
-0.004002,-5.351523,8.067404
-0.005205,-5.368165,8.048081
-0.00293,-5.38895,8.020814
-0.011029,-5.386224,8.028685
-0.018386,-5.442659,7.995903
-0.010939,-5.44447,7.977407
-0.011847,-5.491567,7.963319
-0.021779,-5.502309,7.955056
-0.016054,-5.553713,7.949144
-0.039899,-5.561192,7.945375
-0.032488,-5.615024,7.933198
-0.061927,-5.661929,7.924303
-0.079678,-5.710808,7.912922
-0.075907,-5.742936,7.887084
-0.084451,-5.737507,7.867814
-0.106319,-5.753786,7.853905
-0.104833,-5.766341,7.833459
-0.093407,-5.804349,7.831598
-0.086121,-5.824867,7.805521
-0.065661,-5.837844,7.773155
-0.068731,-5.852789,7.769732
-0.049159,-5.897843,7.759484
-0.038487,-5.927306,7.746937
-0.035549,-5.909655,7.726139
-0.032402,-5.925153,7.697325
-0.038814,-5.927116,7.695557
-0.073043,-5.970967,7.715289
-0.080726,-5.976078,7.722325
-0.099551,-6.00394,7.708764
-0.082661,-6.039975,7.706743
-0.120445,-6.070638,7.703187
-0.11226,-6.056431,7.706804
-0.085435,-6.050592,7.690069
-0.071058,-6.063024,7.672357
-0.098574,-6.077117,7.667274
-0.113133,-6.035871,7.622552
-0.16502,-6.030874,7.609062
-0.162694,-6.004977,7.596301
-0.171586,-5.996873,7.597281
-0.181253,-5.979496,7.61862
-0.196149,-5.97618,7.608536
-0.3076,-5.915775,7.589997
-0.39148,-5.854672,7.523021
-0.352964,-5.82507,7.473697
-0.246754,-5.912583,7.437699
-0.171282,-6.308487,6.836913
-0.303334,-7.085975,5.717521
-0.4807,-8.417829,4.008346
-0.45274,-10.055703,2.407907
-0.387667,-11.387786,1.545821
-0.528988,-11.746954,1.698126
-0.615541,-11.148656,2.656825
-0.367986,-9.969522,4.162473
0.058305,-8.537393,5.784478
0.324167,-6.95903,7.187673
0.281986,-5.410487,8.214781
0.291376,-4.086034,8.943849
0.321932,-3.323235,9.363606
0.411229,-3.100979,9.504907
0.232921,-2.810326,9.645751
0.015837,-2.716007,9.808138
-0.020995,-2.912152,10.017744
-0.065445,-3.442437,10.008152
-0.247374,-3.994581,9.800249
-0.45183,-3.876292,9.823519
-0.690964,-4.046287,9.937351
-0.754641,-4.403432,9.995086
-0.842299,-4.31804,10.044427
-0.595585,-4.157486,10.076546
-0.517568,-4.336704,10.017126
-0.472014,-4.240913,9.605446
-0.315521,-4.260058,9.146906
-0.292555,-4.236451,8.593657
0.009151,-4.405121,8.240801
-0.095241,-4.724147,7.99442
-0.124473,-5.087631,7.825182
-0.051453,-5.663048,7.612368
-0.001695,-6.071191,7.363604
0.100159,-6.371149,7.076519
0.119508,-6.448441,6.757228
0.240513,-6.322697,6.562821
0.371748,-6.240965,6.416136
0.527988,-6.119565,6.429437
0.679673,-6.014442,6.576825
0.67983,-5.634137,6.816603
0.770276,-5.274786,7.258475
0.791264,-5.050661,7.617283
0.582358,-4.639787,7.928634
0.17384,-3.963092,8.428496
-0.161013,-3.375963,8.985746
-0.361777,-2.929248,9.50563
-0.427702,-2.841186,9.830465
-0.488617,-2.810359,10.047516
-0.454641,-2.762637,10.229054
-0.301603,-2.814137,10.312651
0.027611,-3.060121,10.276199
0.360013,-3.435014,10.094546
0.640097,-3.639335,9.759782
0.744622,-3.702581,9.3594
0.642723,-3.647946,9.012202
0.367049,-3.690178,8.877213
0.047092,-3.74299,8.865794
-0.246796,-3.781099,8.944155
-0.511184,-3.788378,9.145205
-0.726002,-3.79292,9.356962
-0.874598,-3.707529,9.589784
-0.889973,-3.560864,9.756734
-0.865102,-3.443768,9.912799
-0.810846,-3.315783,10.061707
-0.729874,-3.209106,10.176062
-0.625832,-3.044496,10.161022
-0.355486,-2.930031,10.044364
-0.159696,-2.856207,9.845681
0.083754,-2.831205,9.679283
0.063977,-2.855237,9.453712
0.075266,-2.831018,9.312084
0.197681,-2.943881,9.166904
0.228043,-3.066251,8.971444
0.177215,-3.157181,8.860729
0.078706,-3.418689,8.744823
0.040312,-3.546506,8.688463
0.034035,-3.523059,8.755674
-0.05879,-3.38958,8.966037
-0.022812,-3.400246,9.319418
0.201956,-3.783633,9.859528
0.440855,-3.903507,10.061929
0.625643,-3.21205,9.308566
0.597453,-2.817031,8.494509
0.477182,-3.052752,8.045151
0.281703,-3.533149,8.087968
-0.121632,-4.33733,8.753376
-0.552181,-4.766319,9.066521
-0.952778,-3.595372,8.45818
-1.304236,-2.870181,8.445287
-1.412187,-2.894729,8.966618
-1.205288,-3.161959,9.616836
-0.629536,-3.026557,9.904379
-0.094307,-2.664716,9.902517
0.180769,-2.363908,9.831572
0.207313,-2.190321,9.770341
-0.012299,-2.244839,9.841559
-0.338299,-2.473366,9.923638
-0.668137,-2.694031,9.786241
-0.944173,-2.919779,9.620382
-0.925868,-3.254566,9.542651
-0.66097,-3.520697,9.579299
-0.253,-3.567947,9.594054
0.021347,-3.50127,9.727336
0.007126,-3.024855,9.747124
-0.031076,-2.585267,9.765526
-0.101434,-2.367079,9.749892
-0.118436,-2.350838,9.753733
-0.113207,-2.437384,9.73262
-0.152313,-2.561245,9.726653
-0.130598,-2.525191,9.664133
0.003987,-2.355214,9.521295
0.121513,-2.195148,9.415169
0.210475,-2.099088,9.401771
0.21103,-2.087416,9.579258
0.126284,-2.001647,9.797599
0.107524,-1.834044,9.92599
0.172895,-1.655436,9.98547
0.3664,-1.570887,9.965709
0.625041,-1.574253,9.855943
0.763156,-1.699466,9.80212
0.565326,-2.046656,9.665074
0.366961,-2.206218,9.478498
0.146104,-2.277295,9.278809
-0.058643,-2.426318,9.159881
-0.127027,-2.565097,9.110549
-0.030134,-2.514441,9.183411
-0.050835,-2.520831,9.154014
0.105357,-2.462351,9.341441
0.199285,-2.204499,9.561689
0.14577,-1.921647,9.805905
-0.008708,-1.679221,9.94125
-0.088256,-1.415527,10.163979
-0.023645,-1.092618,10.508845
0.081088,-0.63664,10.829841
0.145529,0.321019,11.778566
0.184176,0.114705,11.09892
0.492726,-0.138066,10.353683
0.70046,-0.370217,10.3125
0.552322,-0.885374,9.963704
0.270613,-1.135894,9.478027
0.039235,-1.192508,9.457517
-0.099552,-0.996844,9.876148
-0.263411,-0.398853,10.357077
-0.29425,0.044286,10.85738
-0.250619,0.347893,11.482292
-0.238347,0.527606,11.254576
-0.127453,0.302267,10.712434
-0.017199,-0.034934,10.247915
0.119933,-0.394806,9.837433
0.153216,-0.743938,9.572908
-0.022413,-0.999541,9.677765
-0.205702,-0.899838,9.808102
-0.343191,-0.736884,9.799753
-0.412522,-0.733243,9.710431
-0.402381,-0.780982,9.702941
-0.337937,-0.795635,9.676392
-0.330154,-1.000107,9.493603
-0.326263,-1.184837,9.303847
-0.353006,-1.355922,9.179851
-0.284707,-1.47033,9.130833
-0.168729,-1.425968,9.217785
-0.191773,-1.422002,9.36048
-0.224271,-1.356048,9.605914
-0.245489,-1.069094,10.067928
-0.165482,-0.791342,10.265214
-0.124445,-0.853433,10.298043
-0.129778,-0.951308,10.203508
-0.211041,-1.011735,10.079962
-0.261784,-0.892485,10.215923
-0.301169,-0.630589,10.525315
-0.406688,-0.44409,10.727622
-0.507657,-0.305912,10.932286
-0.46287,-0.200117,10.952796
-0.395983,-0.217791,10.923936
-0.242316,-0.340843,10.815038
-0.135563,-0.443081,10.627087
-0.10065,-0.472036,10.502836
-0.111135,-0.436642,10.53593
-0.084975,-0.470457,10.587722
-0.06809,-0.645722,10.565085
-0.135377,-0.832356,10.513474
-0.282037,-0.893085,10.397037
-0.508403,-0.795989,10.346099
-0.621064,-0.690388,10.35228
-0.666558,-0.627199,10.432143
-0.553848,-0.602612,10.468716
-0.43391,-0.542898,10.436148
-0.343734,-0.469654,10.422798
-0.319042,-0.471969,10.402873
-0.379171,-0.436651,10.384295
-0.338332,-0.384259,10.35836
-0.252821,-0.402122,10.353537
-0.164613,-0.481681,10.351903
-0.205193,-0.650671,10.25862
-0.289864,-0.675203,9.963896
-0.29676,-0.668597,9.617714
-0.289514,-0.695584,9.4831
-0.390468,-0.807037,9.442292
-0.50768,-1.179145,9.41601
-0.642577,-1.524439,9.31572
-0.538616,-1.572167,9.319699
-0.366379,-1.412455,9.306574
-0.327777,-1.327114,9.307647
-0.359859,-1.376945,9.340297
-0.347327,-1.366613,9.36763
-0.361277,-1.367931,9.313454
-0.413645,-1.44278,9.306001
-0.420036,-1.53807,9.375849
-0.498325,-1.541436,9.39907
-0.493663,-1.536066,9.407224
-0.42056,-1.483006,9.51906
-0.385342,-1.381352,9.645247
-0.350712,-1.309107,9.738547
-0.357471,-1.280156,9.792023
-0.399096,-1.274098,9.779416
-0.413475,-1.242936,9.697163
-0.439631,-1.10259,9.712325
-0.416486,-0.916641,9.764735
-0.360624,-0.746808,9.831702
-0.286611,-0.617822,9.846069
-0.271406,-0.628277,9.818929
-0.270374,-0.618059,9.746415
-0.28224,-0.650902,9.646303
-0.080746,-0.417437,9.756721
-0.172155,-0.258952,9.804712
-0.422435,-0.437912,9.822386
-0.368694,-0.559888,9.782383
-0.343919,-0.630445,9.613806
-0.333511,-0.603687,9.457216
-0.216257,-0.587924,9.465267
-0.128461,-0.529472,9.480717
-0.303468,-0.578225,9.500608
-0.341007,-0.604881,9.670037
-0.427227,-0.505502,9.772376
-0.483751,-0.406707,9.874822
-0.402399,-0.29699,9.927246
-0.354983,-0.247835,10.017167
-0.32169,-0.230631,10.13481
-0.444998,-0.321872,10.163864
-0.465998,-0.426026,10.225963
-0.451966,-0.468017,10.241832
-0.406843,-0.48396,10.186548
-0.3748,-0.518241,10.168461
-0.438047,-0.555891,10.12372
-0.48357,-0.576015,10.078794
-0.476985,-0.583295,10.05389
-0.501737,-0.619424,10.041961
-0.555442,-0.553869,10.018444
-0.651999,-0.466487,9.961043
-0.642797,-0.457546,9.974159
-0.590969,-0.477798,9.987488
-0.642011,-0.455098,9.91302
-0.69381,-0.397749,9.859087
-0.653406,-0.357919,9.785911
-0.644238,-0.360184,9.753884
-0.668647,-0.390292,9.70344
-0.633862,-0.373844,9.681782
-0.641175,-0.397229,9.635126
-0.583019,-0.406764,9.59256
-0.577201,-0.428782,9.570659
-0.704499,-0.4727,9.552546
-0.72697,-0.461859,9.602657
-0.701306,-0.466567,9.676558
-0.803241,-0.397948,9.818543
-0.870746,-0.372105,9.924942
-0.479817,-0.347785,9.994114
-0.574723,-0.35459,10.049156
-0.810351,-0.343268,10.148647
-0.933423,-0.413374,10.261914
-0.84477,-0.44476,10.386855
-0.733537,-0.385748,10.414845
-0.606013,-0.350003,10.436052
-0.442839,-0.369176,10.473636
-0.34997,-0.420906,10.50956
-0.35552,-0.433204,10.549707
-0.445629,-0.464579,10.606638
-0.592703,-0.484033,10.719118
-0.734089,-0.375225,10.92232
-0.862848,-0.316217,11.035449
-0.915179,-0.360746,11.006593
-0.851598,-0.410193,10.919745
-0.764682,-0.48146,10.873662
-0.727965,-0.552836,10.843618
-0.814716,-0.668751,10.812605
-0.809907,-0.438252,10.982451
-1.009877,-0.263003,11.083244
-1.001218,-0.233859,11.151695
-0.797739,-0.318236,11.103768
-0.619519,-0.362364,10.946923
-0.555964,-0.394538,10.812424
-0.608641,-0.424421,10.76845
-0.671092,-0.352787,10.808016
-0.670924,-0.223615,10.88109
-0.670204,-0.178721,10.998076
-0.68909,-0.153175,11.05278
-0.615659,-0.097694,11.019358
-0.556117,-0.076076,10.939057
-0.486739,-0.052456,10.908469
-0.470783,-0.023738,10.865576
-0.556119,-0.016059,10.923726
-0.543532,0.026594,10.999729
-0.643229,0.052341,11.073894
-0.630309,0.074656,11.101997
-0.666707,-0.008012,11.09997
-0.703433,-0.026819,11.086315
-0.757637,0.014563,11.072518
-0.879478,0.061169,11.099869
-1.000727,0.125159,11.172444
-1.030923,0.098839,11.225021
-0.961523,-0.007813,11.196959
-0.978249,-0.04511,11.121188
-0.986516,-0.058265,11.123678
-0.933955,-0.047112,11.150878
-0.854138,-0.030536,11.176316
-0.792521,-0.029711,11.171745
-0.891137,-0.056649,11.171133
-1.071995,-0.081197,11.190552
-1.188827,-0.180867,11.210962
-1.158629,-0.302386,11.186584
-1.12075,-0.36178,11.146683
-0.999636,-0.305082,11.055616
-0.953021,-0.281703,10.980153
-0.606512,-0.262376,10.958012
-0.209547,-0.261876,10.880574
-0.373326,-0.258965,10.746812
-0.794448,-0.146019,10.747855
-1.137987,-0.10466,10.858034
-1.346056,-0.186336,10.909146
-1.423804,-0.153878,11.01901
-1.16813,-0.067109,11.023441
-1.1069,-0.015519,10.983742
-1.065517,0.117127,10.970578
-1.25872,0.178202,10.961219
-1.425108,0.243271,11.00116
-1.24565,0.238617,11.08048
-1.112386,0.161614,11.073573
-1.31601,0.240575,11.01452
-1.623582,0.362609,10.947636
-1.519374,0.301405,10.894992
-1.354783,0.09986,10.877121
-0.942753,0.060554,10.781882
-0.92453,0.119284,10.696449
-1.119001,0.284212,10.560177
-1.265575,0.333765,10.561719
-1.279517,0.231902,10.596097
-1.125107,0.163004,10.628614
-1.02847,0.048371,10.596584
-0.968947,0.140774,10.57418
-0.690687,0.208908,10.610622
-0.534193,0.177518,10.600784
-0.616839,0.225508,10.537138
-1.255006,0.293694,10.630244
-1.785755,0.304662,10.756472
-1.898928,0.221832,10.923693
-1.687013,0.159202,11.058631
-1.53226,0.230435,11.019214
-1.357762,0.32777,10.914466
-1.174865,0.338262,10.834613
-1.069615,0.302814,10.784022
-0.993288,0.276903,10.75632
-0.801401,0.209273,10.794326
-1.210692,0.237714,10.873955
-1.429972,0.322307,10.928986
-1.49637,0.298607,10.947299
-1.408614,0.263696,10.870852
-1.382851,0.242666,10.756716
-1.210919,0.245973,10.642559
-0.864317,0.229881,10.590298
-0.769362,0.283634,10.623405
-0.716209,0.410396,10.710901
-0.827801,0.496879,10.819667
-1.071356,0.541022,10.880447
-1.178903,0.545388,10.925259
-1.203459,0.477134,10.873436
-1.001798,0.39547,10.832393
-0.844613,0.333302,10.85466
-0.650438,0.393665,10.829281
-0.605359,0.493282,10.800034
-0.706967,0.505134,10.805227
-0.744854,0.418619,10.73314
-0.874592,0.22937,10.67284
-0.752936,0.196993,10.653472
-0.486341,0.216163,10.70116
-0.450522,0.213524,10.704706
-0.719129,0.287146,10.784711
-0.945222,0.302742,10.797803
-1.152214,0.278718,10.855343
-1.197494,0.281505,10.904167
-1.037475,0.203213,10.92083
-0.883002,0.174227,10.850546
-0.609979,0.195789,10.757953
-0.669357,0.138868,10.555573
-0.304193,0.134273,10.540275
-1.222148,0.088371,10.620721
-1.665716,0.506022,10.780796
-1.362759,0.56406,10.918752
-1.203946,0.438583,10.842876
-0.795211,0.224452,10.850745
-0.232428,-0.019818,10.615583
-0.094987,0.119732,10.315173
-0.187586,0.265212,10.145608
-0.481043,0.186023,10.194703
-0.772308,0.057411,10.397248
-1.001185,-0.035563,10.480394
-0.913937,-0.083578,10.459088
-0.723238,-0.085411,10.461026
-0.607326,-0.015318,10.377535
-0.650081,0.062532,10.327857
-0.699301,0.061478,10.267627
-0.579588,1e-06,10.196127
-0.686855,0.117376,10.20658
-0.770196,0.180201,10.206402
-0.737242,0.204936,10.197485
-0.549074,0.20644,10.182469
-0.633093,0.216209,10.078588
-0.870121,0.245604,10.005987
-0.952777,0.182768,9.937968
-0.794604,0.157391,9.89802
-0.50318,0.124213,9.792342
-0.38435,0.160184,9.681568
-0.544888,0.293532,9.594219
-0.699346,0.341962,9.508955
-0.692965,0.198504,9.612048
-0.396473,-0.009315,9.760026
-0.067227,0.142301,9.508804
0.040753,0.387489,9.13222
-0.41786,0.342892,8.878475
-0.547131,-0.024446,8.930479
-0.392145,-0.294741,8.965234
-0.403078,-0.213187,8.915532
-0.368809,-0.046309,8.896654
-0.146381,-0.201403,8.707444
-0.226516,-0.511444,8.248798
-0.265972,-0.146774,8.914057
0.409222,0.087851,9.479726
0.370264,0.522127,9.669355
-0.400407,0.619123,9.561186
-0.670761,0.189486,9.315898
-0.430206,-0.011298,9.344592
0.079078,0.340623,9.587237
0.0369,0.399968,9.653775
-0.206137,0.314975,9.570365
-0.423032,-0.014103,9.571582
-0.41453,-0.038647,9.662821
-0.560729,0.163143,9.644801
-0.709961,0.297274,9.664865
-0.670459,0.196571,9.761249
-0.397786,0.093314,9.734881
-0.230794,0.056203,9.557249
-0.182853,0.119019,9.43801
-0.190393,0.130732,9.44429
0.088331,0.088076,9.43804
0.279763,0.096915,9.349813
0.27534,0.191065,9.263988
0.30651,0.213638,9.277361
0.456869,0.101913,9.265656
0.434524,0.109236,9.226698
0.21828,0.227537,9.2566
0.044308,0.325246,9.359531
0.096858,0.303049,9.420905
0.019834,0.375069,9.468719
0.068831,0.442367,9.4624
0.045471,0.452606,9.386976
0.038487,0.452533,9.382398
0.307223,0.347407,9.431133
0.287799,0.375738,9.42516
-0.144201,0.492772,9.415602
0.2422,0.321192,9.449025
0.933651,0.004931,9.275397
0.165463,0.197324,9.259717
-0.332462,0.516448,9.523941
-0.278538,0.499799,9.919025
-0.312708,0.446773,10.081139
-0.248139,0.246116,10.015307
-0.062542,0.171865,9.809182
0.18681,0.229026,9.600818
0.416913,0.206884,9.493309
0.691898,0.29271,9.380047
0.785328,0.53969,9.253744
0.730841,0.222468,9.345097
0.469686,-0.132245,9.455019
0.142378,0.09606,9.558423
0.260118,0.220499,9.523274
0.591121,0.183038,9.689897
1.027069,0.320781,9.276091
1.514037,0.427035,8.852519
1.736867,0.19157,8.656449
2.232298,0.10753,8.523095
2.800682,0.107778,8.480222
1.926705,0.201479,8.442603
0.404082,0.69541,8.792489
-0.712501,1.192034,9.323143
-0.734745,1.159432,10.104386
-1.259284,1.450349,9.987453
0.298009,0.44756,10.662909
1.306474,0.173832,10.213658
2.120459,-0.043449,8.853043
2.630589,0.058284,7.866433
2.654139,0.264446,7.533169
2.569065,0.256559,7.924017
2.00946,0.073966,8.504122
1.403208,-0.106588,8.846909
1.107024,-0.169314,8.743819
0.956524,-0.11818,8.556539
0.894418,-0.007944,8.625446
0.885606,0.087925,8.658325
1.030086,0.161337,8.699848
1.135894,0.072269,8.682007
1.245625,0.101268,8.472786
1.452189,0.089873,8.33531
1.650177,-0.051242,8.236983
1.803734,-0.155003,8.330956
1.80793,-0.181578,8.56125
1.452402,0.076714,8.50136
1.227546,0.413281,8.322721
1.418474,0.39373,8.543886
1.532867,0.282643,8.732024
1.439987,0.258558,8.640324
1.487984,0.319172,8.499846
1.601409,0.194537,8.491506
1.636482,0.163928,8.552536
1.574371,0.319228,8.488496
1.501551,0.345169,8.300415
1.628345,0.225232,8.475368
1.679556,0.06597,8.581991
1.555767,0.121576,8.469985
1.444988,0.063968,8.268971
1.412903,0.084524,8.043271
1.476711,0.036085,7.959699
1.49507,0.039468,7.880143
1.561169,0.042587,7.818432
1.744221,0.00217,7.726051
1.734261,0.060179,7.630661
1.634046,0.09,7.740718
1.398017,0.014699,7.880997
1.129141,-0.01578,8.064342
0.831555,0.143248,8.010933
0.841161,0.315354,8.126126
1.060796,0.407421,8.31685
1.102334,0.396574,8.206777
1.227569,0.304805,7.846375
1.103363,0.283412,7.470283
1.174531,0.222619,7.234113
1.142852,0.151738,7.101555
1.04557,0.137963,7.043326
1.022034,0.271678,6.972525
1.03781,0.339532,6.871893
0.957209,0.354363,6.916922
1.234564,0.26776,6.988473
1.145114,0.334983,6.93281
1.119697,0.383958,7.016248
1.239415,0.371863,7.274381
1.536775,0.362545,7.391074
1.325533,0.506739,7.368205
1.046894,0.455431,7.221434
0.893621,0.258202,6.90188
1.022403,0.128167,6.912983
0.985048,0.18055,7.088659
1.144974,0.310432,7.193753
1.570233,0.253054,7.261329
1.832757,0.139015,7.204384
1.825553,0.134144,7.28416
1.670006,0.228151,7.599765
1.949512,0.156996,7.830259
2.126852,0.116679,7.912942
1.926082,0.057427,7.936867
1.796919,-0.029196,8.027939
1.706074,-0.020807,8.13071
1.736351,0.045541,8.284369
1.605624,0.0781,8.324819
1.572563,0.088917,8.22298
1.526454,0.049786,8.213336
1.578227,0.041568,8.141574
1.692476,0.013984,8.086292
1.967169,-0.072548,7.972822
1.876491,-0.020772,7.998992
1.849439,-0.010619,8.228584
1.848786,-0.074756,8.2256
1.772628,0.02753,8.272489
1.628813,0.193059,8.442212
1.693432,0.248865,8.454345
1.501486,0.350644,8.554224
1.827264,0.366744,8.690995
1.605002,0.351871,8.727451
1.862487,0.322798,8.758684
1.836572,0.451743,8.779216
2.124305,0.504221,8.76583
2.43208,0.403418,8.649836
1.977533,0.550576,8.775702
2.398244,0.560324,9.02072
2.131689,0.681991,9.161147
2.557549,0.549596,9.260869
2.565921,0.456881,9.207934
2.585461,0.548107,9.324182
2.831498,0.718564,9.383518
2.763726,0.799055,9.369857
2.843331,0.702902,9.442421
3.118611,0.603191,9.317668
2.655892,0.797902,9.347125
3.185875,0.707697,9.388323
2.765314,0.79257,9.300744
3.04674,0.745704,9.417866
3.07099,0.743909,9.240092
2.807151,0.906387,9.351452
3.643696,0.749183,9.147903
2.157898,0.957064,9.226707
3.200759,0.756341,9.474484
4.229515,0.687504,8.885546
3.577193,0.903526,8.814216
2.195116,0.99918,9.324886
2.416179,0.881758,9.630903
2.334703,1.039626,9.765159
3.587428,0.790548,9.580004
3.185959,0.920469,9.209845
3.28402,0.817677,9.089589
3.663741,0.912075,8.830692
3.207989,1.089721,9.089881
3.0915,1.043738,9.446313
3.495021,1.052956,9.328063
2.500885,1.296056,9.632601
2.629355,1.048968,9.607047
2.442806,1.160005,9.578097
2.964714,1.089376,9.360691
3.082415,1.09985,9.211893
3.283538,1.042741,9.061304
3.480285,1.028107,8.898724
3.06086,1.049968,8.944868
3.154262,0.935655,9.210439
3.159189,0.891192,9.38144
2.979412,0.913419,9.41165
2.89807,0.837378,9.375439
2.860739,0.795758,9.435851
2.830796,0.69853,9.317303
2.469704,0.693322,9.536737
3.20072,0.508251,9.451665
2.942408,0.564783,9.346814
2.575389,0.412459,9.38988
2.152435,0.403132,9.560634
2.465531,0.355659,9.680141
2.883229,0.325555,9.567858
2.573249,0.254427,9.398353
2.077949,0.16744,9.465265
2.204703,0.162577,9.606644
2.309576,0.330306,9.660584
1.993928,0.315152,9.801245
2.2353,0.184997,9.785411
2.276541,0.263164,9.621221
2.405063,0.275786,9.510272
2.470043,0.287145,9.402646
2.304679,0.263758,9.483267
2.261909,0.19171,9.687312
2.24315,0.284434,9.845689
2.33684,0.336671,9.850942
2.245152,0.259866,9.788568
2.04233,0.119584,9.820211
2.103175,0.059158,9.842847
2.378287,0.148199,9.825134
2.547217,0.179079,9.776976
2.405554,0.132374,9.741308
2.16937,0.011509,9.86295
2.026631,-0.006142,10.037142
2.097065,-0.001492,10.142377
2.22668,0.006682,10.188478
2.183472,-0.015829,10.117197
2.089849,-0.085685,10.087974
2.071293,-0.149385,10.151674
2.159917,-0.150638,10.206895
2.28387,-0.141679,10.205905
2.292753,-0.160769,10.185488
2.299332,-0.146471,10.102183
2.279174,-0.142551,10.041266
2.301549,-0.173005,10.026681
2.270059,-0.158313,9.992491
2.226936,-0.119963,9.995768
2.223137,-0.081226,10.018182
2.170523,-0.132251,9.956494
2.221061,-0.199335,9.882899
2.334716,-0.229599,9.803593
2.378257,-0.190934,9.739221
2.514017,-0.229475,9.671716
2.572883,-0.26055,9.605643
2.523466,-0.270638,9.592699
2.388215,-0.282852,9.679812
2.25786,-0.26716,9.803741
2.233198,-0.284086,9.814711
2.304199,-0.332685,9.735056
2.404759,-0.343632,9.674856
2.444125,-0.313801,9.560975
2.504934,-0.289578,9.552026
2.554933,-0.315571,9.568603
2.447015,-0.372983,9.55126
2.295899,-0.385314,9.638804
2.171394,-0.306923,9.764228
2.08792,-0.302742,9.844542
2.040153,-0.348881,9.886524
2.106591,-0.380926,9.82222
2.171836,-0.389644,9.767457
2.162896,-0.365035,9.792226
2.078288,-0.415057,9.911849
2.050969,-0.466042,10.046037
2.047968,-0.485842,10.160323
2.043643,-0.455006,10.138842
2.083648,-0.458743,10.036893
2.218584,-0.484597,10.028831
2.265742,-0.470141,9.974941
2.390382,-0.357114,10.004324
2.385021,-0.310258,9.976021
2.284705,-0.346208,9.919959
2.289157,-0.422569,9.913026
2.267898,-0.400308,9.912956
2.269288,-0.325353,9.865245
2.375705,-0.22332,9.745067
2.404108,-0.254209,9.650077
2.417669,-0.256713,9.539179
2.426069,-0.196984,9.487116
2.486162,-0.208915,9.467265
2.403147,-0.214592,9.322083
2.29351,-0.255822,9.226243
2.232262,-0.246931,9.165015
2.168262,-0.235966,9.06953
2.181746,-0.277192,8.972999
2.182178,-0.307096,8.890536
2.175362,-0.326159,8.850027
2.15733,-0.335583,8.818905
2.110856,-0.383654,8.760796
2.0751,-0.437734,8.749624
2.070342,-0.489426,8.789009
2.010081,-0.497972,8.873471
1.965539,-0.484076,8.921946
1.905686,-0.541851,8.985413
1.927664,-0.644178,9.076399
1.909579,-0.687542,9.100846
1.89366,-0.693276,9.058338
1.97347,-0.734272,9.018492
1.991519,-0.687314,9.011499
2.036003,-0.630029,9.04166
2.099602,-0.563811,9.092843
2.04374,-0.494268,9.137112
2.032499,-0.429587,9.230598
2.001004,-0.370531,9.319805
1.95858,-0.280167,9.407374
1.920519,-0.228121,9.48501
1.944281,-0.17881,9.509087
1.989416,-0.162523,9.517152
2.056098,-0.097118,9.549418
2.148315,-0.04521,9.585375
2.185921,0.017065,9.611061
2.157396,-0.001773,9.667954
2.071362,-0.062975,9.708482
2.040435,-0.059567,9.707517
2.074641,-0.096909,9.722938
2.094168,-0.122412,9.692955
2.069438,-0.173282,9.674279
2.050822,-0.204324,9.689729
1.98962,-0.163043,9.68351
1.978055,-0.155615,9.644606
2.013151,-0.18963,9.647062
2.071874,-0.208721,9.606158
2.110158,-0.183364,9.598709
2.138201,-0.202602,9.629143
2.059665,-0.202683,9.589204
1.98155,-0.230854,9.586158
2.045569,-0.2472,9.601183
2.105421,-0.169888,9.541967
2.186148,-0.16005,9.516424
2.192914,-0.175473,9.523354
2.128473,-0.174919,9.529007
2.151675,-0.139757,9.579634
2.157675,-0.081562,9.571657
2.129311,-0.079988,9.549475
2.127374,-0.109159,9.554573
2.120536,-0.069516,9.595192
2.117625,-0.003114,9.605095
2.145758,-0.010332,9.594434
2.197247,-0.049174,9.581532
2.197191,-0.058301,9.529462
2.194654,-0.040467,9.557364
2.163864,-0.014176,9.605143
2.104757,-0.003993,9.620813
2.070392,-0.070176,9.692658
2.040067,-0.105739,9.696027
2.03455,-0.117982,9.652394
2.051255,-0.172046,9.597456
2.05363,-0.230984,9.573392
2.047386,-0.236649,9.570623
2.037659,-0.248817,9.580151
2.000451,-0.257654,9.593765
1.936533,-0.299076,9.598905
1.910073,-0.354293,9.665622
1.864295,-0.364645,9.685732
1.810385,-0.343909,9.627312
1.806106,-0.390265,9.610741
1.79925,-0.359109,9.597898
1.737861,-0.246101,9.603902
1.781812,-0.206825,9.637726
1.761171,-0.167827,9.620479
1.760561,-0.182912,9.603382
1.780605,-0.140618,9.62033
1.914705,-0.039988,9.6177
2.090692,0.004297,9.583918
2.156225,0.013174,9.596795
2.169816,0.012979,9.651108
2.182622,0.002953,9.752708
2.202297,0.079214,9.875745
2.200307,0.14419,9.967877
2.147698,0.113654,10.03303
2.122897,0.07644,10.116679
2.110272,0.106774,10.165057
2.081897,0.099192,10.200228
2.07852,0.020782,10.249127
2.061452,-0.027826,10.256488
2.086491,-0.043878,10.30352
2.112152,-0.055691,10.330893
2.148835,-0.08187,10.263294
2.147245,-0.158378,10.281041
2.107989,-0.170138,10.347391
2.066332,-0.145813,10.370146
2.002157,-0.146979,10.335515
1.977665,-0.187134,10.245213
1.891072,-0.172493,10.05905
1.852994,-0.156547,9.874891
1.842579,-0.110332,9.734458
1.734485,-0.060433,9.570645
1.637634,-0.029506,9.43
1.550364,0.044784,9.321074
1.558847,0.115565,9.255762
1.646616,0.1122,9.254411
1.732417,0.162036,9.299704
1.72692,0.280961,9.397269
1.790215,0.280268,9.59576
1.797369,0.340866,9.707485
1.868448,0.401854,9.784874
1.910268,0.328362,9.950951
1.899658,0.308242,10.081349
1.915751,0.369654,10.202672
1.945929,0.452284,10.300934
2.023793,0.442777,10.326926
2.030292,0.390745,10.267962
2.076065,0.419588,10.230469
2.104313,0.468836,10.168058
2.075244,0.443127,10.097662
2.064701,0.421875,10.0467
2.037728,0.408164,10.0465
2.000586,0.454903,10.051495
1.944403,0.435734,10.030781
1.891419,0.414463,10.023961
1.85695,0.437111,9.919694
1.864701,0.385209,9.798665
1.780651,0.363352,9.547179
1.696864,0.307149,9.308415
1.658003,0.202122,9.169253
1.645564,0.207863,9.075348
1.524637,0.284787,9.027024
1.409921,0.251985,8.941699
1.311356,0.18843,8.797779
1.372684,0.101619,8.732521
1.444792,0.106841,8.629338
1.51632,0.08211,8.584502
1.523829,0.066113,8.586447
1.484069,0.142363,8.670817
1.473257,0.304042,8.844489
1.433928,0.437342,8.933096
1.405418,0.43903,9.069905
1.392993,0.445223,9.244663
1.422791,0.565846,9.397402
1.527538,0.62059,9.560249
1.567643,0.618298,9.624665
1.565894,0.560091,9.637852
1.613747,0.669639,9.719147
1.61475,0.751591,9.742282
1.559372,0.750371,9.765686
1.521684,0.625203,9.790379
1.447677,0.545227,9.846422
1.383169,0.506745,9.844003
1.279406,0.414112,9.766864
1.241299,0.32375,9.611886
1.319515,0.243959,9.540334
1.30339,0.235689,9.518984
1.306072,0.224344,9.542708
1.287872,0.153753,9.463948
1.300543,0.070706,9.400963
1.285107,-0.00149,9.372921
1.206297,-0.01578,9.44706
1.120806,-0.063436,9.550126
1.076782,-0.117953,9.618822
1.07252,-0.198186,9.63914
1.125767,-0.256827,9.634459
1.198849,-0.268672,9.671161
1.267663,-0.255017,9.774453
1.225045,-0.190441,9.829637
1.18165,-0.108283,9.934944
1.264234,-0.009718,10.104971
1.378605,0.171286,10.177624
1.379591,0.206999,10.217636
1.546632,0.174555,10.143522
1.721575,0.337971,10.305721
1.842306,0.494064,10.478814
1.800994,0.595879,10.615022
1.757419,0.634992,10.665405
1.657809,0.674219,10.711819
1.564733,0.719867,10.77687
1.709475,0.709909,10.723344
1.144951,0.685311,10.768507
1.410147,0.478446,10.720174
1.777117,0.503159,10.453809
1.725079,0.495593,10.33089
1.672885,0.410005,10.278155
1.510069,0.421347,10.449886
1.437532,0.445946,10.61731
1.4383,0.387066,10.717699
1.663458,0.241202,10.722487
1.876787,0.089877,10.637843
1.812242,-0.000711,10.564439
1.67201,0.031515,10.553306
1.71159,0.121175,10.781549
1.692375,0.119029,11.036858
1.482289,0.008363,11.086819
1.373687,-0.046002,11.040396
1.381714,-0.090797,11.089725
1.291934,-0.089285,11.103094
1.21398,-0.167887,11.044383
0.925059,-0.032125,11.089447
0.879863,0.688916,11.273502
0.351711,-0.458479,10.578752
1.120539,-0.408656,10.630249
1.71835,0.164142,10.580082
1.376978,0.159914,10.264651
1.010506,-0.292461,9.967004
0.859217,-0.133963,9.81774
0.856483,0.288984,10.056072
0.869452,0.367346,10.245756
0.910701,0.285448,10.160642
0.98459,0.173169,9.951139
0.957792,0.156414,9.800177
1.021627,0.123044,9.80544
1.197455,0.168057,9.927841
1.237501,0.224504,9.908676
1.044783,0.233593,9.754228
0.854741,0.143622,9.578475
0.960485,0.029351,9.622496
0.877053,0.166968,9.6144
0.876194,-0.103453,9.590527
0.854016,-0.202574,9.460572
0.727225,-0.103435,9.271996
0.652144,-0.076778,9.232793
0.677407,-0.144763,9.418711
0.630206,-0.168603,9.433862
0.648486,-0.275562,9.489176
0.568495,-0.161735,9.346926
0.818093,-0.267252,9.325698
0.801042,-0.306919,9.34884
0.953971,-0.34715,9.564441
1.000134,-0.228178,9.770844
0.782672,-0.169544,9.801288
0.62303,-0.219733,9.819776
0.907529,-0.438168,9.870414
1.066653,-0.501224,9.828292
0.837153,-0.349708,9.784176
0.607195,-0.294958,9.890613
0.467477,-0.319712,10.005646
0.595389,-0.304103,10.153362
0.95773,-0.205528,10.135456
1.074061,-0.236825,10.017143
1.039481,-0.643156,10.042056
0.203384,-0.378012,8.872083
0.823408,-0.34663,9.648506
0.948645,0.253877,9.706513
1.742002,0.266629,10.010528
2.078281,-0.508731,10.177247
1.334654,-0.512445,9.638944
0.651971,-0.711211,9.453719
0.72767,-0.586949,9.703057
0.22573,0.053784,10.774908
1.140699,-0.18166,10.992249
1.329073,-0.048995,10.2159
1.149526,-0.15927,9.265487
0.766662,-0.457628,10.004448
1.151833,-0.68948,10.443926
2.775644,-0.582203,10.06549
2.85021,-0.34185,9.583578
0.591638,-0.300136,9.526555
0.684685,-0.642777,9.831881
-0.319762,-0.088272,10.881799
0.737963,-0.100375,11.594059
1.455484,-0.012751,10.78931
2.28434,-0.468539,9.822172
2.629368,-0.66349,8.960483
2.2335,-0.219895,9.175069
1.056615,-0.002735,10.143179
0.679299,-0.048827,10.930515
0.678608,0.153153,10.938681
1.124012,0.130202,10.342627
1.377297,-0.05651,9.863368
1.737299,-0.235549,9.660082
1.841972,-0.039615,9.731306
1.867893,0.185833,9.698807
1.579396,0.164055,9.625342
1.631992,-0.076715,9.504017
1.512061,-0.168279,9.366212
1.435453,-0.110799,9.481646
1.275377,-0.061602,9.545126
1.317472,-0.065335,9.577788
0.795304,0.048917,9.704565
1.593721,-0.071427,9.522052
1.903163,-0.232496,9.004672
1.626659,-0.411986,8.96264
1.114899,-0.309886,9.293985
1.352207,-0.26307,9.595292
1.237848,-0.34433,9.635741
0.916567,-0.477124,9.513916
1.238444,-0.502895,9.374482
1.669896,-0.415726,9.204792
1.728009,-0.426022,9.258242
1.531417,-0.424812,9.339444
1.217473,-0.380885,9.503063
1.118512,-0.314665,9.823149
1.674871,-0.237023,9.609089
1.668271,-0.135295,9.520228
1.506726,-0.30658,9.435527
1.5034,-0.203795,9.600235
1.549922,-0.044202,9.649159
1.42798,-0.042573,9.699556
1.29944,-0.092112,9.685054
1.269801,-0.098712,9.620159
1.343818,-0.059551,9.561388
1.475549,-0.044673,9.48986
1.555533,-0.070664,9.39136
1.594563,-0.126625,9.357941
1.58882,-0.142373,9.389662
1.485118,-0.081869,9.433071
1.421179,-0.074361,9.655247
1.398665,-0.164699,9.731046
1.36962,-0.230369,9.723596
1.386716,-0.245374,9.792372
1.372158,-0.289833,9.840227
1.290364,-0.373877,9.88282
1.179137,-0.448532,9.991365
1.08393,-0.446678,10.099399
1.075296,-0.472645,10.306776
0.914726,-0.608081,10.232692
0.922417,-0.639737,10.296187
0.852067,-0.723993,10.202781
0.87143,-0.609998,10.282434
1.010423,-0.536825,10.407862
0.916053,-0.646947,10.238185
0.803763,-0.763803,10.141268
0.621623,-0.681837,10.08366
0.49128,-0.526892,10.162802
0.686456,-0.513262,10.201833
0.789656,-0.665649,10.00602
0.747972,-0.833882,9.76335
0.786454,-0.78359,9.648112
0.792978,-0.649348,9.674082
0.71859,-0.598969,9.724197
0.629025,-0.575031,9.85469
0.586326,-0.457991,9.922517
0.556282,-0.35609,9.869911
0.693338,-0.408791,9.756223
0.902711,-0.487688,9.659544
0.792091,-0.452743,9.662145
0.628367,-0.386971,9.708653
0.596075,-0.289698,9.750414
0.67236,-0.293633,9.813057
0.697612,-0.345294,9.756893
0.669781,-0.324955,9.691511
0.632929,-0.264903,9.710678
0.730339,-0.239019,9.832597
0.704774,-0.253979,9.966491
0.424181,-0.226295,10.149586
0.960224,-0.24388,10.256623
1.099511,-0.299292,10.061809
0.809671,-0.3218,10.113801
0.670065,-0.269215,10.319046
0.774918,-0.168278,10.536363
0.839537,-0.209212,10.554173
0.755853,-0.288702,10.431821
0.703796,-0.269625,10.363592
0.808406,-0.25093,10.416255
0.915737,-0.259534,10.397014
0.909102,-0.298924,10.327631
0.949463,-0.305225,10.171318
0.870861,-0.238813,10.151945
0.726949,-0.169114,10.272888
0.593261,-0.146064,10.289497
0.627405,-0.112247,10.299589
0.658197,-0.078859,10.222466
0.757351,-0.059191,10.06528
0.800901,-0.026942,10.000271
1.108321,-0.021315,9.876814
1.062478,-0.045446,9.780377
0.918955,-0.011196,9.899205
1.039419,0.038364,10.064417
1.135994,0.032469,10.02283
1.161806,-0.00289,10.046705
1.083989,0.006135,10.171804
1.430379,-0.033076,10.434222
1.465523,-0.1716,10.500269
1.099207,-0.239518,10.572567
0.989147,-0.384358,10.551572
1.059768,-0.334656,10.786177
1.109019,-0.29702,11.025785
1.111407,-0.422501,11.239217
0.910067,-0.491901,10.800874
0.680194,-0.230476,10.482187
1.126664,-0.251872,10.727228
1.641713,-0.235266,10.738817
1.697156,-0.370685,10.772582
1.371417,-0.44032,10.324059
1.098244,-0.579044,10.147516
1.391255,-0.721981,10.013709
0.976291,-0.586214,10.489692
1.229663,-0.622137,10.611913
1.549312,-0.555666,10.647075
0.924463,-0.602355,10.521658
1.344748,-0.995899,10.467773
0.622855,-0.801461,10.244926
0.559745,-1.022589,10.444092
1.054464,-0.823757,10.487519
0.684691,-0.519841,10.188165
0.54535,-0.862367,10.349143
1.478491,-0.921179,9.673116
3.309342,-0.834874,8.948847
3.011498,-0.768514,8.680652
0.815754,-0.892252,9.002371
-1.064921,-1.237127,10.086221
-0.330662,-1.288308,10.825215
-0.130795,-0.507704,11.025391
0.555131,-0.353661,10.382556
0.284832,-0.634215,9.687784
-0.175548,-1.185237,9.303757
0.754489,-1.215859,9.238641
0.823499,-0.685242,9.465189
0.709874,-0.600589,9.419996
0.73494,-0.792061,9.275325
0.01664,-0.871256,9.1386
-0.68076,-1.022971,9.425645
-0.273801,-0.927754,9.685032
0.291771,-0.564281,9.584848
1.590581,-0.529553,9.227673
3.140374,-0.428342,7.906514
0.649614,-0.511832,7.944012
-0.864323,-1.162358,9.093728
-1.196463,-0.698103,10.209947
-1.12654,-0.053547,10.76462
-1.006251,-0.073107,10.491178
-0.317636,-0.434923,9.585217
0.589856,-0.678797,8.729598
0.978844,-0.569199,8.52335
0.637305,-0.156873,8.826049
0.17885,-0.126671,9.257931
-0.203153,-0.258004,9.588369
-0.160359,-0.321109,9.554746
0.069921,-0.322459,9.347424
0.260747,-0.351664,9.237048
0.440724,-0.342256,9.144233
0.569955,-0.209665,8.988133
0.609725,-0.175563,8.923884
0.552317,-0.256326,8.953447
0.440506,-0.285241,8.93661
0.31624,-0.362752,8.908925
0.222572,-0.385656,8.87821
0.136544,-0.40824,8.870674
0.109914,-0.383088,8.890299
0.060303,-0.272753,8.825668
0.101502,-0.250153,8.748906
0.165918,-0.314297,8.723829
0.248181,-0.361279,8.738723
0.213888,-0.372099,8.757622
0.114958,-0.391606,8.723805
0.087194,-0.420476,8.721893
0.089915,-0.439222,8.796972
0.019629,-0.44277,8.817143
-0.010629,-0.411831,8.854062
-0.040839,-0.428225,8.922205
-0.08146,-0.420481,8.944506
-0.076906,-0.351986,8.973115
0.007594,-0.293274,8.984211
0.036765,-0.300388,8.939814
0.064491,-0.279953,8.929039
0.08927,-0.276305,8.983158
0.114726,-0.262623,8.970401
0.121777,-0.243656,8.95059
0.200247,-0.195687,8.906689
0.293074,-0.163475,8.891342
0.340134,-0.154816,8.926283
0.357182,-0.182208,8.942008
0.394118,-0.17295,8.919682
0.452825,-0.180233,8.93309
0.510766,-0.21819,8.928563
0.547106,-0.184952,8.913302
0.605465,-0.155053,8.934851
0.637377,-0.172921,8.969176
0.601414,-0.203282,9.012675
0.58502,-0.238516,9.05161
0.622067,-0.241208,9.042373
0.604942,-0.246425,9.072252
0.609625,-0.27235,9.045544
0.583702,-0.23463,9.141295
0.242816,-0.270418,9.27495
0.363581,-0.269251,9.348512
1.053925,-0.375123,9.193158
1.099107,-0.594976,8.844279
0.952128,-0.702011,8.825449
0.952201,-0.560495,8.87909
0.853855,-0.421341,9.044108
0.732514,-0.495151,9.243486
0.681801,-0.532891,9.308204
0.703849,-0.438135,9.311284
0.800532,-0.429892,9.294653
0.85373,-0.460367,9.254082
0.981561,-0.458033,9.250554
1.097499,-0.431112,9.304798
1.196518,-0.410907,9.352822
1.188246,-0.383768,9.366146
1.1107,-0.369193,9.507337
1.048459,-0.384843,9.666274
1.073061,-0.351418,9.766275
1.079462,-0.351036,9.68314
1.101381,-0.369962,9.646732
1.122473,-0.393904,9.707451
1.140428,-0.383725,9.703232
1.120427,-0.420933,9.67468
1.08873,-0.47638,9.647441
1.032299,-0.52588,9.622441
0.991872,-0.600891,9.630071
1.047856,-0.615989,9.621217
1.067347,-0.644727,9.603127
1.116106,-0.684467,9.613916
1.13624,-0.721026,9.655582
1.108259,-0.761676,9.74403
1.039884,-0.797017,9.771387
0.969344,-0.771027,9.834325
0.881247,-0.756657,9.894228
0.799433,-0.778489,10.003479
0.799596,-0.827091,9.988435
0.763695,-0.878479,9.876881
0.881595,-0.923279,9.836268
0.678731,-0.918726,9.917716
3.205649,-1.614948,9.226671
2.066038,-1.339893,8.75802
0.958011,-0.987538,9.22812
0.639078,-0.644124,10.035554
0.697374,-0.631708,10.47786
0.917436,-0.849905,10.457377
1.013118,-0.854208,9.905957
1.219578,-0.708999,9.504168
1.534299,-0.706945,9.443042
1.536215,-0.732183,9.520558
1.430789,-0.707886,9.52792
1.317238,-0.595898,9.546638
1.210939,-0.487482,9.533194
1.128592,-0.492692,9.483499
1.124948,-0.587729,9.413151
1.054496,-0.609543,9.476505
1.033317,-0.583102,9.468902
1.051197,-0.572366,9.356957
1.044762,-0.588052,9.288676
1.013847,-0.720011,9.281547
0.920832,-0.83072,9.351472
0.799888,-0.887539,9.47325
0.691526,-0.816675,9.558691
0.66884,-0.802194,9.577383
0.746268,-0.817945,9.610476
0.81102,-0.858011,9.688586
0.829344,-0.900687,9.728587
0.847082,-0.814421,9.844731
0.815097,-0.704137,9.967129
0.838808,-0.803826,10.023658
0.866107,-0.91658,9.965456
0.996069,-0.828441,9.866419
1.150736,-0.640494,9.767603
1.219749,-0.612653,9.747235
1.274263,-0.726512,9.712586
1.346749,-0.68446,9.681544
1.418992,-0.535069,9.697573
1.308319,-0.448769,9.686467
1.266558,-0.413737,9.714628
1.381978,-0.358769,9.678948
1.423337,-0.310147,9.566615
1.42605,-0.307873,9.449177
1.344893,-0.279304,9.429056
1.258861,-0.307656,9.45101
1.19795,-0.335327,9.514613
1.211731,-0.339242,9.585466
1.388498,-0.359971,9.495625
0.85208,-0.290232,9.781115
1.362856,-0.502485,9.218065
-0.347007,-0.398402,9.599604
1.265266,-0.647195,9.822611
2.458493,-0.804872,8.980458
0.445248,-0.779017,9.05034
-0.262978,-0.580161,9.369745
0.623255,-0.681027,9.843921
1.574966,-1.008107,9.527453
0.653671,-1.050018,9.169487
-0.522442,-0.957836,9.186859
0.147258,-0.955512,9.599413
2.079505,-1.16398,9.190016
1.531298,-1.201021,8.718269
1.490247,-1.429375,8.407321
1.641021,-1.309349,8.456058
2.119634,-1.298222,8.586911
2.020157,-1.32213,8.69988
2.052536,-1.503112,8.903214
1.766414,-1.512836,9.090861
1.301621,-1.22068,9.277501
1.168363,-0.971218,9.61407
1.048668,-0.858971,10.001123
0.956406,-0.848703,10.256425
1.176582,-0.805494,10.256671
1.399533,-0.583989,10.050492
1.610799,-0.503575,9.82782
1.645448,-0.527447,9.981173
1.493395,-0.455025,10.257593
1.48704,-0.27224,10.456006
1.739333,-0.283692,10.45811
2.14074,-0.435057,10.244916
2.436392,-0.619984,9.991396
2.484449,-0.639287,9.970706
2.393545,-0.621395,10.137258
2.236792,-0.60691,10.28457
2.033384,-0.527476,10.506144
1.971669,-0.478961,10.678622
2.119975,-0.460152,10.748805
2.312051,-0.55595,10.74684
2.520657,-0.728388,10.696509
2.597028,-0.85675,10.551191
2.629952,-0.886627,10.438518
2.581182,-0.830714,10.46088
2.560047,-0.845789,10.488394
2.489973,-0.90473,10.542729
2.375826,-0.985896,10.547406
2.289559,-0.990867,10.494477
2.25234,-1.010929,10.431366
2.208158,-1.053292,10.380218
2.221073,-1.095951,10.299803
2.199937,-1.078582,10.217
2.158045,-1.066617,10.068246
2.142309,-1.158932,9.988821
2.119266,-1.269878,9.937642
1.797756,-1.306832,9.858175
2.294505,-1.452752,9.79807
1.846581,-1.271831,9.753544
1.438246,-1.375157,9.762848
1.744664,-1.501634,9.657612
1.33108,-1.586326,9.630336
1.139165,-1.64637,9.641206
1.763486,-1.800026,9.505249
1.227216,-1.861336,9.207569
1.202901,-1.746434,9.495161
1.283812,-1.811887,9.653443
1.195529,-1.961725,9.557835
0.954682,-1.904342,9.753235
0.766354,-1.868708,9.855588
0.911117,-1.888652,9.827109
0.899856,-1.95886,9.849027
1.691321,-2.166371,9.813081
1.415233,-2.217193,9.533112
1.131388,-2.113137,9.683505
0.9156,-2.024108,10.037541
0.855981,-2.056309,10.184036
0.865761,-2.19671,10.255604
0.949868,-2.240372,10.136876
1.007861,-2.104148,10.002201
0.906929,-2.095353,9.972527
0.701499,-2.155663,10.172533
1.006257,-2.134647,10.105276
0.649975,-2.079409,10.136015
0.979548,-2.024718,10.012885
1.386037,-2.211961,9.754754
0.849038,-2.246312,9.562389
1.339602,-2.222393,9.933592
1.489279,-2.324238,9.49928
0.831946,-2.224444,9.543977
0.047862,-2.023564,9.958363
0.17962,-2.095872,10.069319
0.996881,-2.35306,9.896643
1.582139,-2.563204,9.398958
1.778221,-2.539691,8.81802
1.778933,-2.339555,8.633886
1.721885,-2.241931,8.955207
1.403024,-2.29028,9.420597
0.809831,-2.438832,9.896462
0.494224,-2.506376,10.137131
0.557012,-2.418562,10.146128
0.647556,-2.395713,10.014555
0.773416,-2.540178,9.889682
0.795197,-2.650333,9.776911
0.811056,-2.617834,9.76002
0.863677,-2.588681,9.682141
0.771405,-2.602467,9.603385
0.914132,-2.714436,9.642889
0.546078,-2.744479,9.299893
0.287213,-2.518936,9.875298
1.390304,-2.614525,9.854823
1.596928,-2.852324,9.209448
1.069272,-2.7458,8.783036
0.140425,-2.141362,9.374812
0.520357,-2.129255,9.916889
0.922862,-2.382076,9.95261
1.165094,-2.473299,9.565912
1.552792,-2.446612,9.178383
1.660949,-2.298455,8.884594
1.860265,-2.250388,8.913541
1.675155,-2.280125,9.09358
0.991668,-2.122727,9.570654
1.049974,-2.021668,9.952221
0.938897,-1.874568,9.96885
0.816751,-1.885222,9.787981
0.964272,-1.999076,9.544543
1.241301,-2.099076,9.46379
1.449539,-2.110618,9.509431
1.347132,-1.965163,9.414284
1.373357,-1.930671,9.347348
1.463808,-2.017646,9.289044
1.431469,-2.106587,9.232538
1.45396,-2.104308,9.220548
1.477012,-2.020322,9.245964
1.444915,-1.995401,9.345919
1.256776,-1.992249,9.407216
1.043855,-1.972208,9.452021
0.948511,-1.951498,9.536614
0.893459,-2.008684,9.575547
0.868744,-2.073696,9.635374
0.946671,-2.127477,9.686889
0.913996,-2.105341,9.682174
0.887418,-2.074473,9.750946
0.945234,-2.079644,9.802393
0.934507,-2.106101,9.791404
0.966561,-2.060092,9.798887
1.002242,-1.973471,9.842777
1.032092,-1.888564,9.904573
0.974357,-1.924208,9.947779
0.938403,-1.919436,10.018689
1.01819,-1.885613,10.109718
0.926921,-1.816303,10.223095
1.62789,-1.886652,10.207647
1.252171,-1.760143,10.171124
0.821297,-1.600207,10.458938
0.687489,-1.484902,10.851042
0.775439,-1.449352,11.004548
0.93959,-1.514985,10.958082
1.053126,-1.503688,10.775447
1.207782,-1.419035,10.641434
1.366393,-1.37279,10.680759
1.413517,-1.394952,10.861221
1.37184,-1.324539,10.961033
1.434716,-1.247093,11.008166
1.542335,-1.201315,10.94139
1.758158,-1.243521,10.814469
1.946108,-1.235686,10.762699
1.974009,-1.197425,10.777129
1.990318,-1.100709,10.818333
1.964147,-1.055942,10.851376
1.825487,-1.081511,10.889653
1.793339,-1.16116,10.904717
1.904677,-1.163875,10.821799
1.932852,-1.145692,10.612704
1.912507,-1.158449,10.496337
1.848654,-1.15062,10.603244
1.662724,-1.139246,10.800424
1.434885,-1.127629,10.943437
1.295123,-1.190895,10.984308
1.273285,-1.282255,10.899158
1.288712,-1.332719,10.866546
1.376572,-1.281363,10.814344
1.464277,-1.219642,10.732456
1.426062,-1.233205,10.701527
1.324302,-1.264158,10.759563
1.221431,-1.181982,10.848039
1.175071,-1.097422,10.890699
1.174067,-1.138911,10.901881
1.127452,-1.129733,10.858138
1.126048,-1.097315,10.847226
1.134413,-1.10325,10.789973
1.126566,-1.139689,10.708383
1.139443,-1.21452,10.715441
1.111351,-1.206669,10.676389
1.095006,-1.152917,10.588833
1.087999,-1.173745,10.550235
1.057739,-1.17667,10.522707
0.946686,-1.223295,10.538814
0.885308,-1.219759,10.583128
0.81668,-1.187503,10.533813
0.776259,-1.209658,10.478157
0.741383,-1.263232,10.418438
0.685078,-1.265753,10.398383
0.674175,-1.253504,10.361431
0.651766,-1.235637,10.292768
0.618273,-1.277109,10.200698
0.612097,-1.28536,10.171517
0.621692,-1.242192,10.116298
0.678278,-1.208695,10.040798
0.634981,-1.224241,9.971831
0.61781,-1.265766,9.899652
0.612318,-1.267781,9.874046
0.586062,-1.252653,9.82779
0.580915,-1.267998,9.774683
0.555173,-1.321423,9.682391
0.533047,-1.37256,9.667461
0.490655,-1.33803,9.614381
0.453216,-1.328315,9.593274
0.412255,-1.320141,9.585519
0.338797,-1.399468,9.557698
0.271462,-1.455433,9.557275
0.242395,-1.481468,9.556023
0.251394,-1.49688,9.475825
0.204962,-1.529582,9.381339
0.234154,-1.535303,9.251047
0.252893,-1.519486,9.133521
0.256775,-1.510577,9.031853
0.267931,-1.482976,8.947024
0.253354,-1.478464,8.936097
0.228194,-1.444979,8.893202
0.209745,-1.361524,8.990637
0.139281,-1.313983,9.025084
0.112135,-1.233326,9.096517
0.152465,-1.157451,9.096332
0.195268,-1.074227,9.132713
0.22975,-1.028503,9.149518
0.233369,-1.001548,9.261638
0.234546,-0.936361,9.386995
0.185542,-0.835797,9.429582
0.19289,-0.774171,9.503081
0.25391,-0.769565,9.529569
0.337578,-0.733392,9.472408
0.36217,-0.753295,9.441865
0.386611,-0.732301,9.41913
0.390084,-0.670066,9.415594
0.395239,-0.724832,9.474116
0.399812,-0.769546,9.488056
0.409968,-0.764404,9.459525
0.429086,-0.743684,9.437527
0.450746,-0.743983,9.466098
0.449094,-0.750388,9.526114
0.401959,-0.775471,9.597171
0.443778,-0.772487,9.611268
0.443779,-0.801903,9.528781
0.414383,-0.838559,9.477936
0.434321,-0.855774,9.435508
0.498489,-0.849808,9.38391
0.566104,-0.876149,9.315723
0.565158,-0.88988,9.233415
0.622281,-0.859075,9.228831
0.631829,-0.843221,9.298388
0.652082,-0.845028,9.308951
0.665173,-0.855075,9.260049
0.725157,-0.879572,9.199437
0.869928,-0.839742,9.179456
1.024706,-0.773848,9.191013
1.072913,-0.711878,9.228963
1.081902,-0.683245,9.319097
1.100673,-0.607712,9.409353
1.114895,-0.499893,9.498092
1.033215,-0.4764,9.534842
1.045402,-0.453984,9.58689
1.11978,-0.412362,9.593697
1.190615,-0.420192,9.543793
1.228081,-0.447001,9.530765
1.231133,-0.45941,9.455545
1.183172,-0.476291,9.438376
1.065867,-0.463972,9.465453
1.018939,-0.483425,9.458466
1.019762,-0.526067,9.424902
1.060946,-0.59597,9.330441
1.050846,-0.637308,9.225632
1.075167,-0.726055,9.141606
1.053156,-0.748091,9.114006
1.00598,-0.767186,9.087204
0.975446,-0.853986,9.013229
0.905722,-0.930522,8.998843
0.891151,-1.000064,8.942452
0.879549,-1.033313,8.870099
0.90022,-1.085845,8.806779
0.952759,-1.148816,8.759205
1.013985,-1.119775,8.779634
0.950364,-1.083508,8.875966
0.843838,-1.094762,8.941528
0.745002,-1.122407,8.98198
0.799799,-1.180729,9.0225
0.849902,-1.141745,9.020118
0.944876,-1.094929,9.009941
0.983019,-1.06812,9.034291
0.976156,-1.051004,9.036013
0.990017,-1.042076,9.054489
0.946619,-0.939854,9.159849
0.893853,-0.853764,9.208748
0.914136,-0.80905,9.27482
0.998379,-0.826083,9.287598
1.023572,-0.818718,9.220613
1.036879,-0.800908,9.171893
1.067517,-0.813682,9.141951
1.058035,-0.824147,9.099135
1.037024,-0.836987,9.074135
1.006318,-0.844242,9.051772
0.938911,-0.871937,8.954541
0.919017,-0.90392,8.891714
0.900236,-0.958741,8.853734
0.867637,-0.950129,8.80027
0.865093,-0.92628,8.767586
0.866525,-0.926272,8.783613
0.800188,-0.988851,8.775634
0.724597,-1.063422,8.758297
0.64783,-1.085646,8.710776
0.653487,-1.081368,8.640295
0.696648,-1.12781,8.622015
0.672767,-1.133013,8.68374
0.628738,-1.170319,8.715768
0.628007,-1.238216,8.697766
0.626554,-1.242387,8.646727
0.67508,-1.206605,8.652204
0.744276,-1.18493,8.658268
0.765807,-1.148358,8.708304
0.719202,-1.136051,8.78893
0.717653,-1.150619,8.871649
0.711394,-1.134128,8.943497
0.750786,-1.122447,8.995827
0.803827,-1.044076,9.019941
0.828601,-1.01792,9.050854
0.850878,-0.987006,9.107214
0.878911,-0.976774,9.145659
0.831225,-0.98806,9.15257
0.81371,-0.982537,9.206989
0.829116,-1.024156,9.23094
0.844698,-1.022494,9.164978
0.885166,-1.037189,9.146896
0.913589,-1.058287,9.080277
0.885013,-1.105321,9.009919
0.877985,-1.159042,9.012047
0.873935,-1.156364,9.036155
0.827349,-1.172303,9.005907
0.791195,-1.271519,8.951845
0.78955,-1.341953,8.842366
0.793673,-1.400578,8.773273
0.846387,-1.427299,8.694986
0.870017,-1.514638,8.603306
0.896079,-1.55271,8.558376
0.902403,-1.560092,8.607841
0.844269,-1.558037,8.601722
0.809462,-1.592068,8.628374
0.766668,-1.644447,8.677077
0.776781,-1.655476,8.731891
0.773511,-1.647841,8.794099
0.781774,-1.65214,8.866656
0.790595,-1.630332,8.940389
0.764077,-1.652012,9.029787
0.787941,-1.687887,9.101738
0.756322,-1.664882,9.096281
0.808955,-1.62802,9.145625
0.84342,-1.578659,9.194973
0.861379,-1.527387,9.273798
0.88895,-1.497715,9.363376
0.923524,-1.423672,9.437092
0.942327,-1.36616,9.497202
0.955574,-1.35309,9.546712
0.964338,-1.333057,9.610534
0.986014,-1.294046,9.633729
1.042619,-1.2579,9.634438
1.102613,-1.196371,9.612516
1.155002,-1.185726,9.59517
1.162312,-1.188854,9.576395
1.133333,-1.199126,9.532483
1.122113,-1.193076,9.583243
1.098292,-1.233265,9.637049
1.053016,-1.255613,9.649522
1.051531,-1.296673,9.602292
1.093599,-1.311811,9.550773
1.149409,-1.366794,9.553427
1.153051,-1.406809,9.538551
1.123155,-1.439233,9.637723
1.058176,-1.46637,9.716088
1.007676,-1.47647,9.807634
0.941031,-1.565941,9.880293
0.933288,-1.603351,9.909441
0.977898,-1.575391,9.897661
0.964744,-1.612734,9.832291
0.981931,-1.647804,9.83653
0.952181,-1.662596,9.871548
0.878094,-1.614128,9.940837
0.832034,-1.603496,10.004533
0.79476,-1.575939,9.989647
0.875883,-1.581385,9.995493
0.945868,-1.525165,9.932859
1.000123,-1.487774,9.876191
1.124362,-1.508917,9.803268
1.211756,-1.444875,9.74456
1.290098,-1.356183,9.718349
1.402432,-1.274367,9.704533
1.461631,-1.230906,9.662965
1.532083,-1.24436,9.614691
1.564229,-1.249818,9.556503
1.58449,-1.230014,9.565067
1.589561,-1.195297,9.658888
1.510937,-1.222876,9.7166
1.456057,-1.276571,9.786244
1.383501,-1.313289,9.847448
1.388558,-1.287453,9.906123
1.382227,-1.323527,9.859013
1.353819,-1.562137,9.916637
1.337183,-1.421233,9.832881
1.266089,-1.286645,9.993244
1.276496,-1.420949,10.038134
1.235195,-1.562619,10.065516
1.226291,-1.59566,10.175631
1.234317,-1.530336,10.265736
1.275798,-1.474355,10.219635
1.352994,-1.479219,10.211233
1.494375,-1.471489,10.225964
1.586846,-1.444474,10.209609
1.628982,-1.348329,10.210522
1.640205,-1.26738,10.255197
1.712266,-1.262343,10.381982
1.711483,-1.251098,10.457956
1.708516,-1.213376,10.553458
1.744844,-1.17926,10.579841
1.770766,-1.176995,10.555667
1.812712,-1.1787,10.577696
1.824303,-1.187198,10.60195
1.793494,-1.151747,10.678031
1.700388,-1.179596,10.7205
1.560615,-1.237924,10.718011
1.459056,-1.299358,10.698556
1.400194,-1.342056,10.680026
1.341229,-1.363578,10.636215
1.29184,-1.396468,10.570576
1.31779,-1.445281,10.525001
1.293284,-1.49037,10.472038
1.252571,-1.537883,10.401313
1.302099,-1.581435,10.380446
1.277861,-1.582064,10.382527
1.252249,-1.615104,10.381349
1.260854,-1.655102,10.36385
1.245668,-1.684784,10.285743
1.29793,-1.704151,10.202839
1.338918,-1.710851,10.122039
1.335959,-1.732262,10.062045
1.311922,-1.733403,10.003871
1.267873,-1.752364,9.963539
1.22804,-1.752115,9.97539
1.136061,-1.780607,9.977063
1.101648,-1.774018,10.023665
1.06172,-1.815886,10.005239
1.000668,-1.859303,9.991197
1.017987,-1.916294,9.964781
1.049982,-1.943085,9.921035
1.077935,-1.934859,9.819634
1.1421,-1.982867,9.72472
1.212739,-2.029739,9.584205
1.237529,-2.055064,9.5027
1.24917,-2.03801,9.486018
1.255632,-2.013599,9.486856
1.21769,-2.034109,9.497199
1.18231,-2.075743,9.568253
1.164765,-2.106186,9.634757
1.141677,-2.050934,9.712923
1.156328,-2.013266,9.782364
1.142933,-1.982227,9.853261
1.161922,-1.960905,9.932195
1.145372,-1.933873,10.01612
1.148894,-1.920629,10.068378
1.188628,-1.911504,10.147725
1.168423,-1.858437,10.220185
1.165072,-1.880566,10.277743
1.107752,-1.842817,10.315842
1.088607,-1.801202,10.354799
1.101475,-1.761387,10.404651
1.133174,-1.746454,10.432402
1.139463,-1.699988,10.454403
1.153034,-1.637945,10.408631
1.249193,-1.640992,10.412132
1.273811,-1.561563,10.405812
1.302079,-1.500536,10.331865
1.358526,-1.464764,10.283791
1.375198,-1.43751,10.220489
1.388296,-1.435403,10.195964
1.359913,-1.424002,10.193473
1.359043,-1.401595,10.171623
1.3521,-1.407928,10.193639
1.256708,-1.346402,10.132562
1.215538,-1.362988,10.105841
1.197999,-1.535261,10.081667
1.134533,-1.619244,9.994365
1.085048,-1.652464,9.847713
1.127435,-1.638816,9.700386
1.225285,-1.613556,9.528163
1.246463,-1.529902,9.244842
1.389829,-1.644959,9.084815
1.456776,-1.707364,9.033347
1.415088,-1.678517,9.045688
1.320473,-1.650534,9.106058
1.182954,-1.629439,9.118396
1.125328,-1.658193,9.138876
1.144767,-1.700686,9.186671
1.072688,-1.57312,9.164114
1.138582,-1.512432,9.167529
1.126915,-1.485116,9.100834
1.090826,-1.54993,9.020216
1.106796,-1.596781,8.976064
1.135918,-1.541126,8.975534
1.109037,-1.468903,9.024799
1.040255,-1.423181,9.022757
1.009096,-1.511542,9.023539
0.981364,-1.525613,9.00265
0.939767,-1.499558,8.969324
0.98265,-1.468388,8.981524
1.026131,-1.432163,8.959431
1.092379,-1.415176,8.95419
1.143125,-1.401332,8.94371
1.177355,-1.388173,8.857414
1.220817,-1.423652,8.788914
1.211022,-1.435159,8.742912
1.208593,-1.398248,8.769156
1.179593,-1.371544,8.780152
1.172617,-1.355902,8.805272
1.196832,-1.404907,8.823542
1.156024,-1.402195,8.791768
1.215805,-1.384799,8.777934
1.245287,-1.35667,8.766583
1.266157,-1.354306,8.725818
1.319419,-1.432215,8.698458
1.265974,-1.492528,8.649179
1.202608,-1.544723,8.676182
1.142409,-1.586671,8.747444
1.054611,-1.63215,8.81198
0.989093,-1.670793,8.876111
0.938984,-1.705749,8.906699
0.89507,-1.814249,8.867649
0.821032,-1.860072,8.792567
0.789594,-1.898517,8.779408
0.803895,-1.924985,8.797783
0.75704,-1.952051,8.810788
0.739255,-2.014427,8.845272
0.724876,-2.075158,8.847901
0.735053,-2.103966,8.849676
0.71872,-2.143666,8.819347
0.73625,-2.159375,8.742549
0.735872,-2.17196,8.731964
0.683678,-2.213506,8.780877
0.598633,-2.183851,8.818006
0.57595,-2.155952,8.880374
0.534934,-2.138019,8.919454
0.512455,-2.118766,9.002234
0.505566,-2.108888,9.058868
0.496486,-2.119975,9.087405
0.503671,-2.088347,9.059452
0.575702,-2.132712,9.07211
0.63459,-2.146382,9.087975
0.641786,-2.125418,9.083085
0.642151,-2.111261,9.107491
0.622057,-2.114775,9.105431
0.616254,-2.16967,9.092541
0.64586,-2.218205,9.091992
0.668449,-2.227243,9.09074
0.682434,-2.235562,9.104265
0.714796,-2.25978,9.149262
0.757481,-2.277252,9.214533
0.755305,-2.270651,9.270527
0.741359,-2.317212,9.283473
0.714906,-2.385267,9.26199
0.659693,-2.432543,9.303654
0.636649,-2.441102,9.358824
0.608585,-2.465804,9.351428
0.565288,-2.503481,9.305473
0.568715,-2.593053,9.27295
0.606928,-2.608406,9.275553
0.658074,-2.627712,9.255658
0.640573,-2.623173,9.257916
0.634537,-2.63691,9.224052
0.634532,-2.617572,9.242987
0.645478,-2.591646,9.244485
0.627702,-2.509345,9.270943
0.659068,-2.484761,9.308469
0.690692,-2.500119,9.309696
0.697281,-2.436802,9.293006
0.746478,-2.375005,9.258034
0.815446,-2.282378,9.26341
0.800309,-2.262338,9.247746
0.790243,-2.230416,9.278799
0.771656,-2.177229,9.344104
0.75948,-2.104543,9.391403
0.81384,-2.072771,9.431522
0.839299,-2.078179,9.458074
0.866154,-2.077589,9.501618
0.900682,-2.064891,9.55002
0.911806,-2.061969,9.580943
0.926051,-2.074336,9.602723
0.974435,-2.134809,9.654533
0.953962,-2.145059,9.685027
0.965586,-2.120356,9.683897
0.946213,-2.202864,9.730196
0.98501,-2.21673,9.716611
0.985026,-2.221811,9.657653
1.023184,-2.249374,9.657193
1.018132,-2.233635,9.641245
1.025797,-2.24785,9.642055
1.045245,-2.266958,9.646211
1.080833,-2.292744,9.657272
1.086087,-2.282946,9.651847
1.100191,-2.271715,9.671101
1.092182,-2.278845,9.684779
1.104391,-2.224219,9.711346
1.108329,-2.202712,9.717642
1.13909,-2.160902,9.745647
1.161873,-2.119867,9.783295
1.175817,-2.055652,9.874911
1.176025,-1.998862,9.91107
1.179671,-1.922923,9.960822
1.177521,-1.869835,10.018263
1.169504,-1.762517,10.130188
1.172335,-1.667799,10.243132
1.193746,-1.590772,10.305263
1.246549,-1.535732,10.344909
1.256958,-1.515347,10.401796
1.297485,-1.472745,10.47489
1.306801,-1.380947,10.588298
1.282214,-1.291418,10.707578
1.22076,-1.261161,10.832076
1.184468,-1.279585,10.932029
1.093418,-1.237959,11.004087
1.142689,-1.138491,11.033936
1.09442,-1.136841,11.094595
1.075429,-1.169888,11.151548
1.042218,-1.169432,11.193047
1.061149,-1.163646,11.188812
1.071914,-1.21008,11.170139
1.078514,-1.285209,11.12886
1.110865,-1.28754,11.053824
1.115486,-1.280962,11.017534
1.168143,-1.279623,10.949889
1.100346,-1.318316,10.871425
1.030172,-1.387169,10.850226
1.024627,-1.386357,10.842624
0.980071,-1.288908,10.830875
1.003948,-1.294979,10.775284
1.049629,-1.34265,10.658485
1.040342,-1.386632,10.538213
1.016124,-1.430509,10.430152
1.080581,-1.416645,10.369932
1.110261,-1.376519,10.330438
1.083011,-1.338244,10.334326
1.047507,-1.289518,10.341515
1.034977,-1.243125,10.34792
1.058189,-1.208803,10.371344
1.039563,-1.222022,10.395035
1.071534,-1.161634,10.517941
1.101749,-1.058133,10.615431
1.11459,-1.049259,10.622904
1.155706,-1.087384,10.62348
1.168925,-1.091846,10.644068
1.191567,-1.009172,10.751667
1.209338,-0.882276,10.858388
1.131761,-0.928314,10.857306
1.038261,-1.108315,10.868764
1.016011,-1.173878,10.87456
0.970462,-1.119125,10.919607
0.93016,-1.047529,10.943466
0.902423,-1.156284,10.963645
0.824064,-1.2279,10.991206
0.791714,-1.267809,10.982492
0.816833,-1.255996,10.969184
0.868,-1.256013,10.925442
0.86692,-1.308801,10.923855
0.874292,-1.345104,10.918841
0.902726,-1.328408,10.870911
0.897316,-1.311656,10.813392
0.924061,-1.333307,10.733565
0.944437,-1.336963,10.718947
0.947142,-1.326037,10.714896
0.933592,-1.306908,10.727534
0.959166,-1.330178,10.680896
0.944476,-1.322753,10.651098
0.948377,-1.302592,10.639748
0.959377,-1.275926,10.62272
0.942278,-1.262549,10.601928
0.95807,-1.228804,10.563612
0.973914,-1.249569,10.55012
0.897609,-1.244369,10.490585
0.845624,-1.231505,10.455718
0.791108,-1.265279,10.429312
0.713302,-1.316168,10.319555
0.707764,-1.373991,10.278991
0.680763,-1.372414,10.198525
0.645244,-1.386012,10.115288
0.590633,-1.404876,10.036179
0.545965,-1.424333,9.978143
0.4969,-1.43004,9.877343
0.39985,-1.442624,9.78522
0.377424,-1.471854,9.718061
0.338458,-1.48649,9.648363
0.295781,-1.485053,9.616926
0.248876,-1.474153,9.592311
0.168828,-1.460761,9.484301
0.208084,-1.482526,9.471014
0.167676,-1.464726,9.432644
0.132478,-1.435672,9.416905
0.137598,-1.411979,9.401855
0.145625,-1.441707,9.387145
0.209599,-1.445832,9.425047
0.14453,-1.378864,9.475449
0.197288,-1.313735,9.517666
0.287057,-1.312844,9.546431
0.372493,-1.276656,9.58418
0.339622,-1.241913,9.625118
0.35715,-1.195909,9.640231
0.369302,-1.133926,9.671116
0.306849,-1.089145,9.686832
0.305365,-1.052823,9.741199
0.301992,-1.016291,9.777272
0.328615,-0.957173,9.759403
0.377985,-0.955207,9.758756
0.387823,-0.938218,9.730883
0.393217,-0.877408,9.750074
0.361835,-0.840576,9.798838
0.345215,-0.789025,9.787675
0.321336,-0.803728,9.75966
0.278827,-0.788777,9.716871
0.293421,-0.781789,9.623681
0.312661,-0.759341,9.510545
0.313412,-0.795767,9.389592
0.3224,-0.802526,9.299931
0.262097,-0.813454,9.180193
0.221831,-0.786963,9.076965
0.227499,-0.827985,8.961652
0.137543,-0.850846,8.829447
0.149602,-0.927794,8.669157
0.084001,-0.972023,8.54175
0.064784,-0.961325,8.435283
0.06854,-0.933741,8.305712
0.113967,-0.981676,8.163694
0.151847,-1.143743,8.032953
0.092966,-1.171651,7.876522
0.085281,-1.208524,7.73475
0.130087,-1.295558,7.716625
0.108481,-1.30519,7.807314
0.083859,-1.423035,7.737227
0.011664,-1.424846,7.650811
0.084748,-1.409026,7.661291
0.070258,-1.413651,7.585295
0.029781,-1.410083,7.583003
0.057018,-1.446521,7.596539
-0.016824,-1.452143,7.612852
0.071616,-1.430515,7.620465
0.142826,-1.443082,7.63457
0.220442,-1.484554,7.599854
0.176862,-1.545593,7.610919
0.163186,-1.552628,7.680522
0.205579,-1.527202,7.776667
0.261137,-1.489676,7.830818
0.216763,-1.470129,7.863571
0.286518,-1.502384,7.873047
0.337002,-1.528289,7.900373
0.381741,-1.525446,7.98168
0.414539,-1.439741,8.056784
0.426915,-1.40377,8.145075
0.485763,-1.430788,8.253703
0.518809,-1.4009,8.291931
0.586635,-1.393244,8.353875
0.549687,-1.35121,8.438207
0.558561,-1.345853,8.490364
0.614686,-1.374756,8.522699
0.654252,-1.400293,8.550943
0.640473,-1.346679,8.638007
0.669159,-1.242005,8.753252
0.630479,-1.266489,8.815434
0.553206,-1.34672,8.822787
0.484617,-1.35833,8.810475
0.517053,-1.353902,8.794481
0.572443,-1.324404,8.775687
0.617411,-1.353633,8.777037
0.589194,-1.400258,8.742767
0.581803,-1.437608,8.724236
0.587475,-1.464483,8.748534
0.650095,-1.503639,8.762483
0.624762,-1.515509,8.796487
0.617773,-1.562986,8.817322
0.597946,-1.592034,8.833573
0.601928,-1.616048,8.837392
0.594452,-1.688047,8.875448
0.595318,-1.716481,8.890695
0.529134,-1.737247,8.877762
0.501713,-1.781128,8.901593
0.509055,-1.855915,8.894416
0.463917,-1.916455,8.863482
0.478829,-1.923002,8.845907
0.440697,-1.941469,8.8532
0.435578,-1.999863,8.835639
0.47614,-2.015578,8.808995
0.466131,-2.020571,8.80558
0.429663,-2.02373,8.776528
0.425726,-2.041064,8.788246
0.404497,-2.070939,8.780475
0.394402,-2.082126,8.822338
0.415748,-2.053308,8.812947
0.461654,-2.0467,8.773759
0.515305,-2.085447,8.772992
0.449457,-2.090108,8.836745
0.338006,-2.058988,8.896619
0.305917,-2.042863,8.948012
0.343219,-2.043571,8.966233
0.355875,-2.035115,8.934422
0.409291,-2.029861,8.879249
0.504189,-2.018057,8.888047
0.544682,-2.044942,8.897746
0.555738,-2.110806,8.897623
0.47643,-2.130458,8.936704
0.41889,-2.128909,8.958126
0.406463,-2.164945,8.999436
0.398954,-2.212333,9.031396
0.373895,-2.224977,9.068544
0.355861,-2.178968,9.142396
0.327782,-2.196665,9.1472
0.237645,-2.249515,9.136614
0.207768,-2.296477,9.178036
0.204469,-2.31871,9.208009
0.178555,-2.312267,9.223964
0.159114,-2.318931,9.249102
0.10818,-2.373609,9.277346
0.107559,-2.389362,9.292679
0.12314,-2.407227,9.323146
0.190099,-2.483877,9.325579
0.244635,-2.404151,9.208504
0.210185,-2.299688,9.282614
0.172982,-2.251687,9.315851
0.118079,-2.323668,9.39151
0.129867,-2.382483,9.511656
0.190728,-2.318143,9.559697
0.283112,-2.238782,9.5321
0.398653,-2.194627,9.51712
0.453254,-2.201528,9.523949
0.541814,-2.168997,9.569179
0.611963,-2.137296,9.674621
0.616808,-2.051371,9.750778
0.579176,-1.999436,9.804626
0.558678,-1.968348,9.865733
0.559741,-1.944272,9.924675
0.577415,-1.933512,10.006864
0.631274,-1.918718,10.053912
0.600534,-1.844659,10.049184
0.638193,-1.777021,10.054933
0.694349,-1.763239,10.147567
0.704715,-1.765751,10.147229
0.702886,-1.773165,10.159194
0.738978,-1.737789,10.189385
0.767041,-1.740416,10.21147
0.826018,-1.722512,10.225385
0.893895,-1.70452,10.208924
0.891026,-1.673932,10.1776
0.906689,-1.696315,10.134583
0.92829,-1.728606,10.128325
0.909389,-1.75318,10.134102
0.946051,-1.709735,10.126644
1.037542,-1.716533,10.126164
1.050891,-1.729889,10.097468
1.078542,-1.731626,10.115591
1.092438,-1.655557,10.146931
1.086496,-1.673419,10.198521
1.147165,-1.810678,10.206388
1.243058,-1.778492,10.20509
1.327793,-1.654104,10.232978
1.359756,-1.595666,10.278853
1.367295,-1.651486,10.384965
1.265822,-1.649324,10.503371
1.23862,-1.588056,10.682665
1.257207,-1.502636,10.814622
1.267084,-1.430961,10.88682
1.371213,-1.413311,11.009492
1.43631,-1.393825,11.166986
1.487162,-1.328984,11.264544
1.54549,-1.277151,11.401697
1.569212,-1.238072,11.478184
1.61707,-1.209831,11.589572
1.671786,-1.167611,11.691906
1.683845,-1.172531,11.764344
1.712813,-1.129262,11.819968
1.6876,-1.085281,11.933777
1.675431,-1.038013,12.009728
1.651267,-0.989879,12.063322
1.640141,-0.958545,12.108624
1.614147,-0.975338,12.121358
1.586748,-1.011905,12.165159
1.557926,-1.046579,12.167678
1.49991,-1.027142,12.152812
1.464429,-1.015045,12.16666
1.417052,-1.089231,12.142649
1.351867,-1.104072,12.115767
1.363504,-1.088962,12.133938
1.407034,-1.085078,12.072555
1.488397,-1.130623,11.971582
1.559851,-1.210981,11.926425
1.582583,-1.266388,11.86453
1.541244,-1.271224,11.816482
1.498213,-1.289416,11.820095
1.442696,-1.322304,11.808249
1.379633,-1.389648,11.743377
1.381048,-1.400273,11.682829
1.364104,-1.393379,11.557508
1.356001,-1.432629,11.405901
1.36788,-1.473976,11.338036
1.319908,-1.44962,11.189567
1.284125,-1.458942,11.099259
1.287502,-1.492254,10.999282
1.27208,-1.505371,10.905817
1.269792,-1.543179,10.81768
1.237202,-1.559248,10.734034
1.194496,-1.555963,10.638428
1.175612,-1.552604,10.590242
1.213217,-1.600391,10.505529
1.190179,-1.605526,10.381172
1.201883,-1.634264,10.30629
1.219267,-1.676499,10.295001
1.166181,-1.73531,10.213787
1.158845,-1.766232,10.194387
1.132084,-1.786982,10.167016
1.103523,-1.786792,10.104604
1.099222,-1.829958,10.104196
1.084804,-1.921113,10.131552
0.987418,-2.026618,10.113386
0.98876,-1.773885,10.085181
0.940096,-1.678356,10.180169
0.922187,-1.779725,10.175504
0.90842,-1.919452,10.195821
0.883562,-1.889721,10.221121
0.924329,-1.819963,10.142699
1.024221,-1.817008,10.118481
1.087695,-1.811689,10.101912
1.128657,-1.769544,10.084806
1.102601,-1.745013,10.145584
0.996166,-1.733615,10.217472
0.907536,-1.773186,10.297603
0.953556,-1.733114,10.348816
0.930627,-1.627844,10.318036
1.035511,-1.574226,10.266678
1.006669,-1.55358,10.200818
1.039632,-1.513139,10.168931
1.142714,-1.448408,10.200281
1.145262,-1.427033,10.174835
1.175879,-1.453229,10.157798
1.185735,-1.463772,10.113355
1.247332,-1.377718,10.166899
1.259373,-1.316459,10.155167
1.285293,-1.350548,10.146481
1.270482,-1.30738,10.145997
1.204625,-1.267228,10.171942
1.202475,-1.225738,10.199437
1.176436,-1.245583,10.179301
1.178252,-1.272092,10.1242
1.215426,-1.308625,10.085384
1.229525,-1.268358,9.966969
1.228975,-1.216107,9.87145
1.233497,-1.243515,9.823613
1.240636,-1.259888,9.785758
1.209897,-1.211009,9.760439
1.18933,-1.174677,9.73303
1.216038,-1.141559,9.668788
1.201002,-1.164937,9.58422
1.280846,-1.140275,9.507352
1.307131,-1.082082,9.441523
1.297261,-1.025906,9.340047
1.331634,-1.034861,9.305285
1.347908,-1.012167,9.217824
1.363167,-0.933248,9.124025
1.405793,-0.893226,9.040659
1.431447,-0.893167,8.934955
1.451681,-0.850111,8.94715
1.385596,-0.781661,8.98565
1.308492,-0.793056,9.00609
1.207824,-0.884423,8.942482
1.21503,-0.859414,8.906908
1.226784,-0.819502,8.83883
1.213467,-0.781782,8.739397
1.242672,-0.834616,8.652681
1.234629,-0.899314,8.517358
1.213072,-0.933913,8.43401
1.216465,-0.912461,8.406773
1.187061,-0.895605,8.355702
1.162083,-0.884258,8.309015
1.143185,-0.970925,8.24624
1.049166,-0.991656,8.191171
0.987189,-1.019579,8.183451
0.961365,-1.060131,8.175664
0.96195,-1.089963,8.136899
0.901084,-1.133803,8.089651
0.893901,-1.180332,8.054834
0.892908,-1.2179,7.99579
0.8548,-1.224421,7.944623
0.855644,-1.256182,7.94512
0.877948,-1.26083,7.923997
0.884081,-1.264349,7.954288
0.844206,-1.251663,8.009384
0.830915,-1.276718,8.035774
0.804022,-1.30704,8.106727
0.824252,-1.354903,8.035094
0.865016,-1.316641,8.019783
0.846358,-1.260666,8.013554
0.878302,-1.239075,8.049496
0.871659,-1.249751,8.078257
0.877596,-1.226266,8.137423
0.883399,-1.226707,8.199251
0.853455,-1.219179,8.211999
0.863741,-1.232781,8.246588
0.883268,-1.252718,8.27198
0.84557,-1.196897,8.241262
0.827127,-1.182806,8.258829
0.843915,-1.232302,8.288955
0.794826,-1.286833,8.285127
0.756765,-1.312123,8.245857
0.752221,-1.240813,8.315664
0.704175,-1.388477,8.147041
0.720438,-1.434567,8.125614
0.679859,-1.388601,8.137399
0.634659,-1.395137,8.160597
0.669249,-1.466494,8.165723
0.671736,-1.501322,8.156002
0.671469,-1.51823,8.155296
0.694334,-1.533303,8.151458
0.707226,-1.551611,8.1499
0.669644,-1.586653,8.167702
