Gyr_X,Gyr_Y,Gyr_Z
-0.000562,1.1e-05,0.004474
0.00155,-0.002153,0.00462
-0.000228,0.003537,0.003611
0.002626,0.000272,0.003126
0.000995,0.001033,0.003973
0.003742,-0.001048,-0.000237
0.004218,-0.001095,0.003468
0.004531,0.000536,0.003143
0.003377,0.003331,0.002541
-3.1e-05,-2.5e-05,0.003148
0.00352,-0.002265,0.004851
-0.001399,0.002579,0.0022
0.001741,-3.7e-05,0.006051
0.000603,0.001571,0.002996
0.002985,-0.000796,0.004496
0.00037,0.002513,0.003066
0.000455,0.002565,0.000855
0.000899,0.00234,0.003009
0.00286,0.000455,0.001905
0.003799,-0.000973,0.003441
0.00428,0.00025,0.002702
0.002544,0.002072,0.003222
0.00112,0.003194,0.00167
0.003173,0.002614,0.005924
0.003075,-0.002122,0.00613
0.003204,-0.000608,0.007574
0.002151,0.000443,0.004914
0.001238,-0.001405,0.002158
0.000698,9.5e-05,0.004607
0.000823,0.000312,0.002568
0.001689,0.003446,0.001376
0.002057,-0.000715,0.002822
0.004727,-0.000304,0.003987
-7e-05,0.003155,0.001606
-0.002304,0.003726,0.002176
0.001574,0.002273,0.000954
-0.000331,0.001105,0.007283
0.001431,-0.00212,0.00309
0.002312,0.005937,0.002391
-0.00184,0.001591,0.002962
0.002625,0.000849,0.007416
0.003291,0.000953,0.002579
0.002327,0.00058,-0.000425
0.003479,0.00421,0.003356
-0.000259,-0.002509,0.004325
0.000405,-0.002679,0.002625
0.000889,-0.00046,0.003473
0.001257,-0.001124,0.00317
0.003199,0.002704,0.006589
0.003985,0.002366,0.003053
0.000707,0.005319,0.002376
0.001746,0.002376,0.000647
-0.000504,0.000723,0.003655
0.000917,0.001451,0.004106
0.000975,0.00054,0.006127
0.001543,0.00165,0.005224
0.005344,0.002191,0.003318
-0.00343,0.000342,0.004318
0.003422,0.00155,-0.000399
0.001851,0.004711,4.7e-05
0.003985,-0.000276,0.002149
0.000744,0.002604,0.003492
0.004794,0.003152,0.004063
-0.000353,-0.001368,0.003696
0.000335,0.000352,0.003428
0.001203,0.001846,0.002623
0.000546,-0.00079,0.002839
0.002285,0.004712,0.005499
0.000887,0.004054,0.000287
0.002959,0.007228,0.003875
0.004677,-0.000259,0.002278
0.000732,0.002124,0.003853
0.001972,0.001689,-0.000106
0.002504,0.000142,0.004157
0.000957,0.000324,0.00312
-0.00139,0.001846,0.000576
0.001376,-0.000939,0.001756
0.000568,0.004201,0.005708
0.00116,0.000603,0.003133
0.001574,-0.000839,0.004662
0.002017,0.000682,0.004558
0.002461,-0.001568,0.00787
0.004507,-0.000709,0.00331
-0.002606,0.001962,0.00347
0.001099,-0.003693,0.003432
0.003176,0.002501,0.001628
0.003956,0.003079,-0.000179
0.002053,0.000753,0.00444
0.000928,-0.001085,0.003811
0.002425,0.000744,0.002847
0.001671,0.002661,0.004435
-0.000528,-1.3e-05,0.000869
0.001781,0.003796,0.003313
-0.000238,0.004164,0.004151
0.001276,0.001747,0.001746
0.00328,0.003699,0.00133
0.002105,-0.000352,0.000221
0.002854,0.002997,0.003503
0.000579,0.003571,0.002005
0.001963,0.000646,0.00307
0.001555,0.001148,0.002921
0.000273,0.000674,0.002078
0.001522,-0.002003,0.005413
0.002014,0.002231,0.002254
0.002182,0.000984,0.001418
0.000628,-0.000259,0.001673
0.003218,0.002003,0.001495
0.001542,0.002118,0.003066
0.005383,-0.000216,0.00043
0.001653,0.000361,0.005416
0.001217,0.00392,0.000819
0.002075,-0.001024,0.002881
0.000467,-0.001921,0.002349
-0.000387,0.001531,0.004335
7.4e-05,0.003097,0.005286
0.003455,-0.00179,0.005224
0.002579,0.002327,0.000822
0.002738,0.001506,0.001764
9.8e-05,0.004008,0.003662
0.000855,-0.002839,0.000779
0.003453,-0.001411,0.003821
0.000725,0.000573,0.003188
0.001486,0.002208,0.003424
0.000968,-0.000887,0.003228
0.003058,0.002036,0.003653
0.001154,0.000895,0.005975
0.003723,0.00167,0.003182
0.000989,-3.1e-05,0.002827
-0.00073,0.000963,0.003359
0.000527,0.003686,0.002646
0.002175,0.003053,0.002871
0.000537,0.003811,0.001036
0.000965,0.00198,0.004371
0.001868,0.001609,0.001035
0.001615,-0.000398,0.003458
0.003179,-0.000425,0.004485
0.002343,0.006031,0.0051
-0.001289,0.000132,0.003206
0.001258,0.001239,0.003486
0.003672,-0.004257,0.004741
0.008122,0.000783,0.001615
0.00179,-0.002322,0.00338
0.002689,-0.001171,0.003069
0.001518,6.2e-05,0.002689
0.003114,0.002917,0.002863
0.001941,0.000662,0.004321
0.003207,0.001987,0.003903
0.001498,0.005835,0.002307
0.002005,0.002541,0.001707
0.000975,0.00288,0.004359
-0.000243,-0.002317,0.001565
-0.000496,-0.000255,0.003726
0.003678,0.000834,0.005891
0.003936,0.002863,0.002434
0.002358,-0.000748,0.005547
-0.000194,-0.003009,0.003239
0.001632,0.004876,0.002281
0.001893,0.000805,0.003318
0.001938,0.004072,0.003783
0.004142,0.001215,0.004027
0.001397,0.005401,0.002996
0.004553,0.001391,0.001205
0.001235,0.001008,0.003187
0.000937,0.000138,0.003807
0.003103,0.000482,0.006538
0.000814,0.00203,0.006188
0.000512,0.002656,0.001126
0.000525,0.001775,0.006896
0.006088,0.000653,0.003227
-0.00058,0.001387,0.002646
4e-06,0.005283,0.002823
-0.002047,0.000494,0.006715
0.001355,0.003468,0.001233
-0.001492,0.0014,0.003559
0.003224,-0.001591,0.005857
0.00359,-0.001264,0.00258
0.001975,0.000372,0.00327
0.001978,-0.002271,-0.000748
-5.4e-05,0.000339,0.003753
0.003802,0.000105,0.004018
0.005888,0.002774,0.0042
0.002063,-0.000262,0.004975
0.001065,0.000214,0.003985
0.003315,0.001436,0.004249
0.001553,-0.000669,0.002558
0.000442,0.002047,0.002851
0.004257,9.5e-05,0.002918
0.00416,-0.002615,0.003072
0.00411,2.8e-05,0.002826
0.001428,0.003257,0.004914
0.000737,-0.002129,0.002166
-0.001052,0.002334,0.002908
0.001568,0.002349,0.00057
0.001592,0.002678,0.001072
0.001843,0.001199,0.004012
0.003923,0.000299,0.003196
-0.000364,0.003581,0.000789
0.006355,0.003748,0.002729
-0.000428,0.004461,0.002427
-0.001059,-0.001948,0.000962
0.001613,-0.001901,0.001701
-0.000761,0.002458,0.003008
0.001808,-0.000809,0.001752
0.000197,0.003081,0.00337
0.00223,-0.000286,0.003716
0.000405,0.005009,0.001628
0.000397,0.004467,0.001542
0.00289,0.001637,0.003878
0.002063,0.003111,0.003809
0.00283,0.001288,0.005075
0.002343,-0.002383,0.002103
0.002383,-0.000167,0.003629
0.002559,0.002664,0.002218
0.005176,0.004696,0.001159
0.004832,0.000588,0.003103
0.004468,0.00199,0.003053
0.001765,0.001531,0.002623
0.003607,-0.0026,0.004985
0.002957,0.002313,0.001094
0.003406,0.002822,0.002407
0.00227,-0.00232,0.003491
0.002604,0.004364,0.002212
-0.001183,0.002579,0.00388
7.5e-05,-0.001085,0.002698
0.000901,-0.000711,0.002169
0.001707,0.002662,0.004076
0.00417,0.002439,0.005106
0.004087,0.003285,0.003094
0.000387,0.001318,0.004777
0.002343,0.000853,0.003438
0.003362,0.0006,0.005797
0.002766,-0.001356,0.004215
0.001524,-0.00062,0.005054
-0.001021,0.000776,0.006863
0.002239,-0.000541,0.002859
0.002863,-0.004058,0.003647
0.003257,0.000767,-0.000754
-0.001055,-0.003122,0.00174
0.003951,0.004289,0.001753
0.002357,0.003148,0.004629
0.000372,0.001179,0.004759
0.000653,0.000899,0.003121
0.000402,0.002711,0.004192
-0.002106,0.003097,0.004112
0.002059,0.003926,0.002726
-0.000346,-0.001013,0.00186
0.000999,-6.7e-05,0.002164
-0.00031,-0.000171,0.003549
-0.000468,0.000755,0.004189
0.004575,0.000282,0.004052
0.004321,-0.000392,0.003111
0.003877,0.002723,0.005234
0.001057,0.001559,0.001434
0.001324,-0.000513,0.003948
0.00119,0.00119,0.002534
0.001463,-2.7e-05,0.005064
0.004869,0.000194,0.000992
0.000193,0.001302,0.001764
0.00071,0.000338,0.003304
0.003298,0.002455,0.003581
0.001214,-0.000672,0.003921
-0.001495,0.002664,0.003912
0.001416,0.001258,0.00175
0.001048,0.003298,0.002784
0.003251,0.001483,0.001792
0.000837,0.001823,0.00247
0.002327,-0.001483,0.003252
0.000108,-0.002173,0.002504
0.002091,0.002002,0.007807
0.002917,-0.002556,0.003611
0.000537,0.002754,0.002549
-0.00163,-0.000265,0.005098
0.002844,-0.000311,0.00216
0.00143,-7e-05,0.004468
-0.001755,0.000276,0.003264
0.002148,0.002747,0.004879
0.00065,0.004566,0.003131
0.004446,-0.000103,0.006523
0.00016,0.001026,0.001196
0.002786,0.001375,0.004297
0.003322,0.00292,0.002494
-0.00027,0.003066,0.001439
0.000554,-0.001718,0.004113
0.005222,-0.001349,0.002541
0.001488,0.001269,0.004318
0.0014,0.001272,0.004417
-0.000463,0.001615,0.002826
0.002148,0.001393,0.003717
0.002208,0.001898,0.002115
0.002786,0.000418,0.003307
0.004371,-0.000747,0.004733
-0.001909,0.000802,0.004209
0.00393,-0.000185,0.003488
0.001883,-0.002229,0.005456
0.00271,0.003728,0.003817
0.001017,0.002951,0.004827
0.001089,-0.002356,0.002193
0.004143,-0.00138,0.00047
0.004259,0.001007,0.002979
0.000153,-0.001584,0.004501
-0.001058,-6.9e-05,0.002592
0.002336,-0.001797,0.003197
0.000485,0.004978,0.002749
0.003309,-0.000593,0.002002
0.000253,-0.000639,0.00265
0.002263,0.002956,0.00673
0.001774,0.003801,0.002817
0.002285,0.002191,0.00236
-0.001118,-0.001544,0.001911
0.002455,0.001449,0.003288
0.00191,0.000355,0.002385
0.001315,0.000366,0.004601
0.001656,-0.003728,0.002471
-0.001128,-0.000112,0.002674
0.001974,-0.001881,0.006355
0.001875,0.001734,0.001521
0.000734,-0.00052,0.004002
0.000209,0.003558,0.001644
-0.001878,0.002833,0.005329
0.002659,-0.00114,0.006544
0.001202,-0.001554,0.006426
0.000151,0.001273,0.00724
-0.000143,0.004203,0.002851
0.000373,0.001887,0.006115
0.004318,-0.001812,0.003795
0.003476,0.001501,0.001644
0.005887,0.001531,0.003227
0.00731,0.00074,0.00165
0.004468,-6.6e-05,0.001476
0.001786,-0.000785,0.00153
0.003689,-0.000551,0.000259
0.003541,-0.000221,-0.003305
-0.000426,0.002582,6.9e-05
-0.000831,0.000133,0.003053
0.000589,0.0023,0.003984
6.8e-05,0.001545,0.004587
0.002258,0.001597,0.003809
0.000227,0.002719,0.000999
0.002802,0.002589,0.003295
0.001716,0.001515,0.001606
0.006465,-0.002071,8.4e-05
0.002978,0.003662,-0.000454
0.001239,-0.002408,0.005338
0.000944,0.003017,0.002334
0.002962,-0.002894,0.002689
0.000843,0.001321,0.000458
0.000911,-0.000851,0.002017
0.003666,0.001309,0.001662
0.002372,-0.000668,0.003504
0.000114,0.003553,0.0031
-0.001626,0.001486,0.006873
0.00229,-0.000504,0.005079
0.001285,-0.001162,0.005036
0.003383,-0.005293,0.004271
0.001759,-0.000115,0.00358
0.003225,-0.000289,0.001868
-0.000867,0.003231,0.001339
0.003893,0.000495,0.002385
0.004742,0.003348,0.005617
0.001944,0.003249,0.004265
0.002412,0.001723,0.002027
0.000168,0.004282,0.005085
0.004526,0.000481,0.003298
0.003418,0.002185,0.002693
0.002577,-0.000261,0.002011
0.000479,-0.00053,0.002808
0.002811,0.004945,0.004552
0.002391,0.001138,0.00181
0.004726,0.001705,0.001334
-0.000894,0.000682,0.00061
-0.000335,0.001123,0.005244
0.001087,0.006048,0.000524
0.003166,0.000652,0.001673
0.003878,0.000813,0.003272
0.004051,-0.00013,0.004237
0.003094,0.000551,0.002433
0.00395,0.002176,0.001054
0.002535,-0.000153,0.004952
0.001321,0.002361,0.005124
-0.001384,0.001249,-0.000256
-0.000213,-0.000435,0.000264
0.001266,0.002455,0.003435
0.000983,-0.001171,0.000676
0.001787,-0.002539,0.002829
0.001407,0.000267,0.000434
0.000989,0.002269,0.001078
0.002589,-0.000454,0.00705
0.001841,0.002857,0.00271
0.001476,0.00251,0.00189
0.001364,0.002707,0.001102
0.004403,-0.000301,0.003002
0.000354,-0.000273,0.004191
0.003497,-0.000979,0.005314
0.003839,0.001267,0.000266
0.000644,-0.000882,0.002327
0.000284,0.002249,-9.8e-05
0.003584,0.001266,0.001242
0.002145,-0.000416,0.004186
-1.3e-05,0.00444,0.001269
-0.001186,0.000135,0.004221
-0.004397,0.001476,0.002433
0.003061,0.001819,0.002041
0.004428,0.002012,0.002939
-0.003405,0.002041,0.002224
-0.001717,0.002738,0.003556
-0.001931,-0.000511,0.003953
0.004388,-0.001344,0.007697
-0.001822,-4e-06,0.002453
0.005876,-0.000592,0.005122
-0.003801,0.001196,-0.001076
0.002257,0.000166,0.00167
0.001956,0.001255,0.000793
0.00323,-0.000237,0.002808
0.0007,-0.000301,0.001874
0.005665,0.001755,-0.00129
0.0051,0.002559,0.004288
-0.001472,-0.000145,0.000864
0.002379,0.002534,0.005016
9.8e-05,0.003947,0.001796
0.001685,0.000874,0.005444
0.005981,0.001871,0.002607
0.004367,0.002532,-8e-05
0.003444,0.001874,0.003933
0.000293,4.8e-05,0.005145
0.002208,9e-05,0.001838
0.004024,-0.000699,0.001501
0.003374,0.001869,0.006077
0.003476,0.000285,0.002735
0.001767,-0.003545,0.003812
0.003915,-7e-06,0.002842
0.002741,0.002164,-0.000906
-0.001374,-0.001854,0.003877
0.001568,0.002044,0.001893
0.00236,-0.000253,0.002088
0.002115,0.003032,0.003491
9.5e-05,6.2e-05,0.002729
0.001093,-0.000459,0.002981
0.003298,0.001132,0.003789
0.005028,-0.000209,0.002179
0.002324,-0.000773,0.002376
0.004641,0.002482,0.00459
0.001078,-0.00096,0.005361
0.003505,0.000989,0.001464
0.002506,0.002471,0.004309
0.004176,0.000706,0.004848
0.000595,-0.000401,0.00385
0.003543,0.004993,0.002036
0.001317,0.003938,0.00267
-0.001687,-0.001463,0.006957
0.002401,-0.001961,0.001786
-0.001049,0.000479,0.005644
0.00203,0.000565,0.003064
0.003437,-0.00243,0.006788
0.002276,0.000168,0.003395
0.000728,-0.000431,0.001987
0.00178,-0.000925,0.000715
-0.002584,0.004376,0.003263
-0.001283,0.002665,0.002306
0.0023,0.002327,0.002647
0.003996,0.00158,0.000822
0.002491,-0.000951,0.001902
0.000577,0.002191,0.002161
-0.000548,-0.000554,0.00388
0.003815,0.003856,0.000859
5.9e-05,-0.000109,0.005376
0.002127,-0.000331,0.00545
0.002431,0.000859,0.000738
0.002118,0.000191,0.00271
0.003407,0.00212,0.003128
0.002941,0.001266,0.000941
0.004669,0.002978,0.006256
7.1e-05,-0.000495,0.002975
0.001531,0.00063,-0.001042
0.002279,0.00434,0.004017
0.00535,-0.001605,0.006311
0.003936,0.002948,0.002678
0.002741,0.001409,0.00276
0.003719,-0.000627,0.003389
0.003231,0.004859,6.8e-05
0.004316,-0.000817,0.002172
0.001394,0.000963,0.004128
0.000621,0.002181,0.005435
0.001083,-0.002059,0.004015
-0.000528,-0.00242,0.001057
-0.001341,-0.000396,0.003692
0.003961,0.000482,0.002462
0.002704,0.002386,0.002154
0.00198,0.002506,0.005036
0.003243,-0.001562,0.003798
-0.00097,0.001574,0.000449
0.005948,0.000965,0.003348
0.00416,0.000768,0.001169
0.001244,0.003345,0.005328
0.004036,0.000947,0.004207
0.002957,0.000565,0.004026
0.000853,0.003324,0.002114
0.001759,-9.1e-05,0.004362
0.004465,-0.000331,0.00366
0.004774,0.000244,0.002462
0.002054,0.001282,0.004537
0.001778,-0.000633,0.004561
0.004932,0.000525,0.001314
0.003418,0.000582,0.003652
0.004279,-0.0035,0.002845
0.004438,0.000586,0.00558
-0.000522,0.001077,0.006
0.005374,0.002564,0.003383
0.002039,-0.001614,0.001679
0.003044,-0.000416,0.000789
1e-05,-0.00204,0.00479
0.001908,-0.00131,0.003519
0.004769,0.000974,0.002243
0.002616,0.000767,0.004005
0.004203,0.003416,0.00136
0.002248,-0.003552,0.003355
0.000786,0.003699,0.002014
0.00044,0.001443,-0.001231
0.000138,9e-05,0.003683
0.000814,-0.001144,0.002927
0.003798,0.003419,5.3e-05
0.002909,-0.000411,-0.001028
0.00351,0.001302,0.003923
0.002446,0.004215,0.001293
0.002844,0.002318,0.002558
0.003681,0.001004,0.005058
0.000758,0.001141,0.003738
0.00146,0.003932,0.003851
0.003057,0.002003,0.004535
0.002565,0.001291,0.005954
0.001415,0.006653,0.006121
-0.001208,0.001117,0.003245
0.002005,-0.001471,0.005605
0.002161,-0.00027,0.002942
-0.00146,0.002693,0.005063
0.000719,0.000928,0.002835
0.000615,-0.001805,0.004705
-0.000283,-0.001298,0.004483
0.002102,0.00146,0.000555
0.001826,0.005009,0.001068
0.0023,-0.000243,0.003346
-0.002581,0.002559,0.000844
0.003355,-0.000347,0.006529
0.002698,0.000937,0.003678
0.00313,0.000293,0.000782
0.002313,0.001196,0.001197
0.003663,0.002896,-0.000592
0.002763,-0.001094,0.003263
0.000767,0.0043,0.002695
0.004586,-6e-05,0.003868
0.003555,0.002999,0.001448
0.003601,-0.000812,0.003161
0.003599,0.004552,0.003728
0.002483,0.001023,0.002668
-0.00011,-0.002079,0.002336
-0.000645,0.003193,0.002939
0.000953,0.004543,0.003029
0.001816,2.6e-05,0.00098
0.003202,0.001756,0.004485
0.005113,0.002158,0.003851
0.000625,-0.00062,0.001084
0.003656,0.001775,0.00209
0.001142,0.003264,0.000312
-0.000575,0.000898,0.008436
-0.000349,-0.003037,0.002622
-0.000556,0.00167,0.000916
0.001302,0.002874,0.001872
0.005638,0.003918,0.00113
0.004561,-0.002651,0.002591
-0.00013,-0.001808,0.005842
5.9e-05,0.005903,0.003613
0.001992,-0.002143,0.004255
0.000111,-0.000378,0.004668
0.000507,0.003278,0.00057
0.002634,0.002945,0.003395
0.002375,0.002774,0.002404
0.002211,0.001682,0.001281
0.009092,0.002564,0.002847
0.010576,0.003394,0.002401
0.01715,0.008554,0.00103
0.026227,0.011999,0.002321
0.039838,0.015803,0.001318
0.056709,0.022175,0.002173
0.075009,0.031386,0.002299
0.094599,0.038398,0.003055
0.107212,0.041244,-0.011081
0.101618,0.030922,-0.063527
0.091826,0.029006,-0.132293
0.115856,0.040656,-0.156046
0.159118,0.05865,-0.140351
0.209936,0.083121,-0.119746
0.257924,0.101854,-0.084874
0.304956,0.109262,-0.041969
0.33332,0.121781,-0.011915
0.333873,0.122654,-0.008559
0.325079,0.118399,-0.016347
0.313037,0.106541,-0.021039
0.273842,0.041365,-0.050014
0.274257,-0.012736,-0.070456
0.276672,0.00738,-0.054091
0.278307,0.006426,-0.03545
0.299323,0.003167,-0.02175
0.331182,0.003473,0.007931
0.362558,0.00089,0.037583
0.379092,0.000191,0.053126
0.372914,-0.013192,0.049854
0.332814,-0.030158,0.035707
0.293537,-0.05765,0.030696
0.260326,-0.091724,0.027441
0.238618,-0.116801,0.031557
0.228018,-0.146964,0.038587
0.228887,-0.172517,0.044356
0.251316,-0.181867,0.04852
0.279933,-0.185455,0.039574
0.309185,-0.172223,0.021129
0.338111,-0.159293,-0.003135
0.354374,-0.147392,-0.025067
0.373631,-0.136329,-0.039986
0.386826,-0.118713,-0.051467
0.380793,-0.102654,-0.041321
0.376438,-0.087187,-0.031933
0.367356,-0.071284,-0.011703
0.338479,-0.053659,0.003897
0.335478,-0.028345,0.021095
0.337025,-0.008392,0.05108
0.318394,0.017215,0.087709
0.283381,0.038023,0.12382
0.227775,0.060145,0.16058
0.161634,0.082953,0.190946
0.095318,0.106996,0.214773
0.008824,0.12928,0.228997
-0.09217,0.144795,0.2391
-0.177133,0.1586,0.249324
-0.245123,0.16493,0.261056
-0.307359,0.16162,0.280879
-0.345458,0.147552,0.298495
-0.374536,0.126316,0.305942
-0.397588,0.103781,0.304609
-0.404722,0.070966,0.301766
-0.402685,0.038106,0.288875
-0.390135,0.008554,0.267804
-0.361492,-0.01639,0.239494
-0.327046,-0.035985,0.204089
-0.283533,-0.051177,0.166463
-0.243051,-0.049672,0.114497
-0.198455,-0.044532,0.068241
-0.156645,-0.027181,0.018374
-0.120859,-0.005607,-0.019142
-0.088342,0.017501,-0.050513
-0.057769,0.04875,-0.06348
-0.037636,0.082626,-0.073011
-0.019459,0.127179,-0.073315
-0.017205,0.169388,-0.071368
-0.02673,0.22097,-0.083369
-0.020105,0.275978,-0.093631
-0.066733,0.321505,-0.109527
-0.090119,0.372731,-0.129174
-0.120372,0.418017,-0.123854
-0.140855,0.459277,-0.119501
-0.162253,0.494855,-0.1048
-0.173484,0.517594,-0.101428
-0.184535,0.526399,-0.113535
-0.187147,0.5281,-0.130211
-0.175741,0.512857,-0.120711
-0.16481,0.486999,-0.074539
-0.154078,0.450026,-0.02445
-0.155491,0.411733,0.0143
-0.165853,0.376997,0.037149
-0.184746,0.343362,0.051973
-0.206514,0.308726,0.064776
-0.218096,0.273221,0.063876
-0.233099,0.232895,0.065818
-0.235425,0.182035,0.075065
-0.236456,0.133484,0.083619
-0.23621,0.085681,0.081726
-0.229515,0.049012,0.07518
-0.219475,0.010752,0.064347
-0.203608,-0.019822,0.050845
-0.199783,-0.041263,0.040025
-0.195642,-0.058717,0.020594
-0.19152,-0.074567,-0.006925
-0.184411,-0.085047,-0.02628
-0.178412,-0.093263,-0.037836
-0.168937,-0.098597,-0.034431
-0.155473,-0.106685,-0.031823
-0.142989,-0.113589,-0.026505
-0.122774,-0.129259,-0.026152
-0.106794,-0.148124,-0.021754
-0.094987,-0.170389,-0.027728
-0.081289,-0.190306,-0.028218
-0.080903,-0.211838,-0.031357
-0.085086,-0.240099,-0.033444
-0.094408,-0.268297,-0.033614
-0.110304,-0.298846,-0.028268
-0.137448,-0.333051,-0.020023
-0.158224,-0.377299,0.003737
-0.189406,-0.410695,0.02845
-0.216802,-0.454429,0.03719
-0.243422,-0.491251,0.05287
-0.265294,-0.535882,0.063457
-0.285712,-0.585149,0.082149
-0.297266,-0.629863,0.097201
-0.310987,-0.67981,0.122608
-0.321502,-0.721374,0.13639
-0.328602,-0.762275,0.145177
-0.335467,-0.787674,0.138537
-0.334117,-0.801271,0.13014
-0.323741,-0.799619,0.109372
-0.302859,-0.781074,0.08901
-0.275077,-0.757516,0.05708
-0.239408,-0.732778,0.012279
-0.204879,-0.700957,-0.028414
-0.166874,-0.655961,-0.062497
-0.133149,-0.597227,-0.100416
-0.111964,-0.534164,-0.140966
-0.096096,-0.469871,-0.17864
-0.084601,-0.391847,-0.213829
-0.079645,-0.315705,-0.226115
-0.07548,-0.24012,-0.23209
-0.078757,-0.169577,-0.22665
-0.088701,-0.099581,-0.216578
-0.101811,-0.039896,-0.19207
-0.11898,0.017341,-0.164877
-0.137503,0.064536,-0.131182
-0.153801,0.092386,-0.094271
-0.173698,0.113141,-0.070265
-0.198109,0.118995,-0.03936
-0.221427,0.109137,-0.006394
-0.245783,0.091124,0.03976
-0.268109,0.061414,0.076319
-0.297754,0.025823,0.105643
-0.318591,-0.006248,0.128556
-0.333926,-0.041255,0.157499
-0.342843,-0.078507,0.190336
-0.352313,-0.121363,0.212955
-0.351226,-0.15149,0.227512
-0.342211,-0.182982,0.238083
-0.327297,-0.206834,0.242617
-0.315563,-0.223459,0.246877
-0.309235,-0.239387,0.238825
-0.298746,-0.253241,0.226558
-0.277181,-0.254501,0.230449
-0.247569,-0.254507,0.234222
-0.234306,-0.256833,0.227251
-0.227164,-0.253624,0.216769
-0.233747,-0.257492,0.218602
-0.23386,-0.256169,0.220565
-0.242077,-0.255065,0.227777
-0.250191,-0.256637,0.228689
-0.254951,-0.260462,0.224245
-0.262961,-0.27197,0.22608
-0.246099,-0.283258,0.237287
-0.235724,-0.294541,0.260826
-0.22109,-0.317179,0.281873
-0.208092,-0.337917,0.312086
-0.211419,-0.365773,0.301991
-0.208624,-0.376588,0.321422
-0.210074,-0.41022,0.345062
-0.215618,-0.427207,0.361683
-0.233939,-0.455375,0.37153
-0.245024,-0.468798,0.378906
-0.266433,-0.461209,0.410651
-0.293662,-0.474832,0.427046
-0.324814,-0.501604,0.41806
-0.334476,-0.476408,0.430963
-0.34664,-0.473531,0.45232
-0.361173,-0.499635,0.436441
-0.376281,-0.471069,0.430826
-0.37263,-0.432679,0.454509
-0.393273,-0.458051,0.435714
-0.396745,-0.44325,0.417604
-0.390256,-0.395119,0.445274
-0.410028,-0.419673,0.409404
-0.396599,-0.407603,0.377462
-0.373343,-0.334945,0.394399
-0.368379,-0.348951,0.375933
-0.367931,-0.363572,0.340343
-0.329194,-0.304078,0.35032
-0.324246,-0.315242,0.338972
-0.345975,-0.343512,0.286605
-0.327268,-0.292964,0.317898
-0.334017,-0.307971,0.314022
-0.346461,-0.333044,0.29579
-0.337212,-0.326161,0.315008
-0.336768,-0.36469,0.303417
-0.336553,-0.382656,0.28185
-0.322762,-0.392994,0.284452
-0.309856,-0.417274,0.286248
-0.292006,-0.43188,0.276945
-0.265837,-0.439212,0.271083
-0.250775,-0.454439,0.26378
-0.223953,-0.464477,0.254446
-0.180833,-0.476378,0.25809
-0.139943,-0.481641,0.261455
-0.099641,-0.490488,0.261187
-0.063184,-0.498863,0.274844
-0.035949,-0.500973,0.285249
-0.023659,-0.499897,0.291318
-0.025035,-0.491564,0.304859
-0.017114,-0.484018,0.320005
-0.014977,-0.473264,0.329713
-0.004444,-0.474091,0.331708
0.003459,-0.480524,0.332441
0.008079,-0.488083,0.333721
0.005483,-0.489029,0.338814
-0.0111,-0.480168,0.352875
-0.017439,-0.478783,0.356046
-0.026098,-0.477091,0.363771
-0.030369,-0.467394,0.363002
-0.028723,-0.453219,0.367079
-0.016883,-0.427787,0.372032
-0.002973,-0.420059,0.370348
0.017468,-0.403014,0.369931
0.031365,-0.394431,0.37071
0.039234,-0.387077,0.375516
0.038067,-0.373997,0.385243
0.044469,-0.370191,0.401076
0.064536,-0.372298,0.419713
0.080507,-0.373998,0.439031
0.109593,-0.376843,0.449445
0.125412,-0.383686,0.459198
0.135005,-0.385509,0.478854
0.145664,-0.389019,0.487565
0.136732,-0.390339,0.506572
0.117923,-0.3948,0.526629
0.107258,-0.386277,0.547368
0.10367,-0.382422,0.557766
0.114193,-0.375377,0.567729
0.130745,-0.3885,0.579792
0.157594,-0.388755,0.576613
0.190385,-0.366369,0.577896
0.23528,-0.352803,0.578783
0.270168,-0.363489,0.578327
0.306369,-0.38027,0.579342
0.337469,-0.411482,0.578039
0.367785,-0.435563,0.573299
0.372607,-0.460146,0.563959
0.377461,-0.471719,0.554695
0.395931,-0.495586,0.554595
0.392995,-0.501332,0.547052
0.389522,-0.513552,0.542664
0.378794,-0.513779,0.547965
0.367791,-0.502746,0.556777
0.37512,-0.50779,0.574259
0.394461,-0.50849,0.594611
0.416037,-0.517523,0.622364
0.434687,-0.520216,0.646495
0.445866,-0.526764,0.669686
0.452144,-0.524128,0.691573
0.452357,-0.512286,0.705861
0.451458,-0.502689,0.716783
0.459936,-0.495292,0.729986
0.462877,-0.49372,0.734928
0.463186,-0.503841,0.741508
0.466847,-0.50907,0.747637
0.454553,-0.505451,0.754515
0.422313,-0.489228,0.75501
0.393347,-0.464584,0.762672
0.359222,-0.427105,0.759947
0.325886,-0.375968,0.751174
0.302077,-0.326596,0.740551
0.280459,-0.273323,0.740818
0.251395,-0.223129,0.748412
0.230628,-0.178048,0.762048
0.203107,-0.128056,0.774904
0.184446,-0.084916,0.77673
0.157891,-0.047618,0.791484
0.132766,-0.014685,0.798712
0.125226,0.006724,0.802141
0.136106,0.011428,0.808593
0.15618,0.028607,0.805185
0.183416,0.021302,0.794047
0.192439,0.02229,0.778868
0.215934,0.026854,0.767721
0.232115,0.034039,0.761498
0.24987,0.033489,0.738801
0.267766,0.030983,0.729457
0.279474,0.025069,0.730532
0.304117,0.012737,0.745317
0.281268,0.009843,0.756323
0.222673,0.026373,0.765669
0.187189,0.02305,0.797229
0.147272,0.025512,0.833955
0.104236,0.017408,0.855471
0.063411,0.009132,0.868366
0.017043,0.002306,0.885106
-0.020853,-0.007299,0.893959
-0.053109,-0.022778,0.901307
-0.057076,-0.037059,0.900509
-0.045142,-0.049457,0.902682
-0.004005,-0.061134,0.909227
0.055239,-0.070143,0.912088
0.113717,-0.086887,0.902034
0.162245,-0.099483,0.894923
0.197981,-0.103453,0.871497
0.210824,-0.100197,0.846911
0.205476,-0.092794,0.827452
0.197407,-0.090322,0.80239
0.197058,-0.084312,0.774247
0.20091,-0.068814,0.745659
0.209115,-0.044088,0.737246
0.223535,-0.015618,0.72785
0.224256,0.006361,0.70285
0.224047,0.017966,0.692304
0.223223,0.034264,0.692668
0.206064,0.056545,0.687587
0.200266,0.070714,0.683371
0.207148,0.072508,0.684137
0.221818,0.086144,0.679124
0.244393,0.10206,0.68965
0.292615,0.108632,0.691066
0.320867,0.118805,0.672462
0.359764,0.136968,0.669139
0.398376,0.148652,0.669959
0.433163,0.148512,0.654964
0.450023,0.141818,0.636653
0.455741,0.139924,0.610838
0.443465,0.154697,0.588661
0.420909,0.177708,0.552344
0.390145,0.200074,0.505059
0.358129,0.244332,0.452165
0.328178,0.303986,0.400978
0.312144,0.366318,0.351568
0.294133,0.424006,0.30128
0.276744,0.481875,0.255961
0.253474,0.514852,0.218255
0.232432,0.534964,0.184345
0.202059,0.575038,0.150803
0.168704,0.597692,0.13215
0.122271,0.620208,0.1338
0.083587,0.624202,0.140292
0.04778,0.615092,0.152103
0.038677,0.603781,0.171932
0.051997,0.586722,0.188997
0.050462,0.551084,0.209578
0.043311,0.49872,0.21284
0.009825,0.486595,0.250664
-0.038312,0.509445,0.298759
-0.094461,0.517378,0.302555
-0.158918,0.521403,0.29115
-0.192361,0.545866,0.282026
-0.223522,0.554966,0.266057
-0.254291,0.584927,0.253021
-0.278075,0.594657,0.255329
-0.301993,0.584022,0.238328
-0.322187,0.575183,0.23256
-0.335297,0.574813,0.226059
-0.353345,0.580946,0.219741
-0.376131,0.587801,0.186685
-0.395422,0.613127,0.159656
-0.409916,0.6557,0.132922
-0.403358,0.70129,0.086807
-0.377317,0.723186,0.048765
-0.319019,0.721891,0.023406
-0.248969,0.71844,0.024753
-0.185996,0.709949,0.041976
-0.082986,0.67612,0.085124
0.008919,0.647318,0.130679
0.085924,0.610512,0.164091
0.183702,0.556161,0.210602
0.258862,0.513303,0.254356
0.330626,0.470593,0.29498
0.384622,0.434917,0.323349
0.4138,0.405108,0.34074
0.424225,0.380541,0.341959
0.425463,0.361342,0.338758
0.414796,0.337262,0.341051
0.366452,0.326643,0.347019
0.311597,0.311273,0.340051
0.253176,0.302576,0.329781
0.161345,0.319748,0.316934
0.095546,0.30004,0.292896
0.015541,0.308099,0.282318
-0.079355,0.302974,0.256603
-0.167374,0.284942,0.239313
-0.257349,0.286702,0.229111
-0.332329,0.283024,0.223231
-0.386566,0.271799,0.218088
-0.403355,0.264462,0.214259
-0.388497,0.261939,0.220563
-0.373805,0.255048,0.227227
-0.333795,0.219353,0.24564
-0.287688,0.201564,0.261596
-0.225371,0.176273,0.278396
-0.161922,0.140897,0.301395
-0.097309,0.122239,0.323602
-0.033066,0.102112,0.333937
0.013342,0.084364,0.348438
0.059959,0.075863,0.369536
0.10333,0.085633,0.390158
0.132401,0.097913,0.402736
0.146391,0.117961,0.410526
0.144114,0.125729,0.417782
0.127152,0.144664,0.432613
0.100412,0.162002,0.437013
0.068834,0.179253,0.444866
0.027185,0.195933,0.443911
-0.009894,0.216017,0.44697
-0.03814,0.240616,0.440609
-0.046158,0.259665,0.426135
-0.033621,0.2804,0.406873
0.003236,0.304141,0.383524
0.053955,0.318088,0.359128
0.102044,0.319255,0.330425
0.148099,0.319967,0.322733
0.189913,0.307839,0.327405
0.216464,0.295488,0.350063
0.23844,0.293363,0.379729
0.24785,0.29879,0.418333
0.22601,0.304221,0.455762
0.179621,0.319617,0.493678
0.119569,0.335544,0.526247
0.054567,0.354316,0.550469
-0.012767,0.372327,0.575725
-0.084576,0.380651,0.608905
-0.136781,0.389461,0.644296
-0.183253,0.399608,0.674478
-0.219722,0.393029,0.705325
-0.240204,0.374334,0.738632
-0.272501,0.355362,0.766056
-0.306141,0.335205,0.793272
-0.343672,0.321572,0.807315
-0.370006,0.323426,0.809413
-0.398073,0.325736,0.812084
-0.403194,0.326672,0.811926
-0.376856,0.303724,0.820766
-0.304836,0.267246,0.831241
-0.207762,0.209192,0.844658
-0.116442,0.136211,0.857332
-0.045826,0.062855,0.868615
-0.007157,-5.5e-05,0.877034
-0.011191,-0.047062,0.884133
-0.086482,-0.098312,0.897775
-0.074013,-0.062676,0.920276
-0.062087,-0.045902,0.9154
-0.011799,-0.021525,0.898352
0.054424,-0.02283,0.876292
0.126217,-0.024374,0.849907
0.175042,-0.016926,0.831746
0.19332,-0.002222,0.810825
0.19616,0.018875,0.795197
0.174647,0.040676,0.775639
0.142952,0.064907,0.757263
0.105707,0.085268,0.749903
0.064794,0.10752,0.754113
0.027411,0.114047,0.764915
0.001267,0.120718,0.785328
-0.016762,0.130125,0.802339
-0.015898,0.135056,0.817297
-0.020528,0.139331,0.835974
-0.019902,0.151471,0.846804
-0.015777,0.166377,0.846902
-0.002845,0.183376,0.838148
0.005791,0.204026,0.824873
0.019366,0.216495,0.809366
0.033019,0.224049,0.799316
0.043508,0.227457,0.789858
0.045305,0.239671,0.789317
0.054684,0.259944,0.793875
0.064822,0.269692,0.807806
0.077765,0.284389,0.830855
0.088555,0.293351,0.856275
0.100558,0.295193,0.880865
0.098122,0.300139,0.904849
0.09403,0.299705,0.922811
0.080977,0.290965,0.939223
0.074568,0.287905,0.951428
0.055557,0.277297,0.973311
0.048565,0.263027,0.985312
0.038298,0.234027,0.994233
0.033398,0.208661,0.996971
0.031035,0.191204,1.006802
0.024957,0.170323,1.005341
0.019763,0.162738,1.018515
0.020636,0.153501,1.024812
0.022223,0.141684,1.035878
0.029003,0.143855,1.048033
0.043447,0.155247,1.064339
0.046187,0.159545,1.065342
0.040976,0.158354,1.062707
0.021274,0.160361,1.058891
0.010911,0.167024,1.053699
-0.004335,0.184263,1.034155
0.012641,0.200477,1.008619
0.038812,0.218105,0.990943
0.065582,0.209659,0.981144
0.082789,0.198556,0.964905
0.08943,0.193109,0.941421
0.072733,0.190791,0.918753
0.06031,0.217464,0.895824
0.058264,0.252978,0.874018
0.046819,0.278822,0.859655
0.025138,0.302715,0.843013
0.040092,0.335648,0.825527
0.015173,0.326928,0.806941
0.0274,0.348114,0.79357
0.022047,0.357478,0.768352
0.03184,0.379381,0.740802
0.04262,0.396558,0.71154
0.08198,0.393281,0.693933
0.118675,0.389903,0.669276
0.166439,0.383333,0.650326
0.208183,0.35772,0.624424
0.251436,0.340922,0.615794
0.284845,0.322061,0.596958
0.300915,0.267012,0.596484
0.289796,0.22122,0.589158
0.306121,0.221857,0.584524
0.2928,0.185665,0.577466
0.308161,0.170413,0.577007
0.310785,0.163031,0.561128
0.325259,0.156435,0.538842
0.345817,0.149567,0.538974
0.339391,0.135452,0.561709
0.297271,0.112437,0.594688
0.263012,0.126978,0.609159
0.251072,0.145761,0.617112
0.231072,0.158639,0.634911
0.198687,0.186536,0.644007
0.1981,0.199466,0.649779
0.188646,0.207009,0.657763
0.184185,0.228628,0.657808
0.149532,0.234468,0.650261
0.117642,0.231818,0.644047
0.090822,0.245095,0.638289
0.022966,0.272829,0.634874
0.014663,0.314239,0.64554
-0.027615,0.32806,0.636635
-0.085835,0.351556,0.633202
-0.099164,0.39833,0.643528
-0.12589,0.452975,0.641533
-0.122331,0.482332,0.63986
-0.149815,0.491933,0.625613
-0.190821,0.526349,0.607095
-0.210874,0.572779,0.605867
-0.193085,0.590322,0.62475
-0.241399,0.589542,0.629021
-0.276199,0.588367,0.645494
-0.295377,0.607331,0.669632
-0.297745,0.617212,0.702321
-0.315391,0.631806,0.738756
-0.33599,0.63662,0.774011
-0.33534,0.650389,0.80832
-0.348516,0.651508,0.84728
-0.334744,0.651894,0.885078
-0.312294,0.645473,0.915278
-0.238617,0.647719,0.924201
-0.1514,0.619725,0.937616
-0.07823,0.591078,0.943037
-0.006555,0.561833,0.943931
0.04276,0.520813,0.929404
0.076949,0.493256,0.9193
0.100172,0.465009,0.919707
0.138658,0.437562,0.902447
0.190661,0.417494,0.873245
0.248674,0.388358,0.844503
0.300821,0.375325,0.819207
0.368581,0.367717,0.781331
0.389927,0.34387,0.751353
0.398503,0.336868,0.719414
0.412171,0.342654,0.692485
0.417844,0.35956,0.657038
0.417728,0.365339,0.631621
0.392277,0.379973,0.614462
0.339226,0.398041,0.598704
0.293291,0.413499,0.589343
0.248481,0.428986,0.582399
0.20292,0.435028,0.574263
0.146884,0.446434,0.563652
0.10354,0.434179,0.563692
0.057202,0.420637,0.566702
0.037134,0.395726,0.56067
0.0456,0.341266,0.556866
0.056411,0.293239,0.554162
0.083008,0.22893,0.550365
0.13342,0.138926,0.547046
0.136838,0.053725,0.542051
0.158007,-0.04351,0.543655
0.167603,-0.137824,0.547739
0.150637,-0.220956,0.550491
0.132532,-0.298633,0.55638
0.131261,-0.381425,0.56515
0.129829,-0.452073,0.56862
0.136685,-0.542653,0.57001
0.151461,-0.639312,0.565345
0.187367,-0.723127,0.546967
0.243347,-0.810376,0.507742
0.305425,-0.883578,0.469882
0.37973,-0.91454,0.439119
0.447472,-0.929961,0.415937
0.482234,-0.979653,0.391501
0.500957,-1.019197,0.374995
0.489159,-1.050869,0.368765
0.459371,-1.076381,0.381673
0.413471,-1.090771,0.391304
0.350166,-1.095288,0.39778
0.313921,-1.082927,0.410579
0.281502,-1.065213,0.423106
0.232139,-1.054802,0.465838
0.224542,-1.009429,0.356231
0.280235,-0.876524,0.396145
0.102118,-0.887944,0.480778
-0.033878,-0.923473,0.550627
-0.141045,-0.991808,0.512245
-0.188053,-0.868933,0.632859
-0.242309,-0.679432,0.799812
-0.341196,-0.537872,0.851923
-0.418115,-0.383379,0.842432
-0.451352,-0.164838,0.832883
-0.475389,0.040979,0.826862
-0.529577,0.220908,0.831188
-0.592086,0.310031,0.840485
-0.633356,0.369597,0.834451
-0.647749,0.346091,0.823457
-0.630951,0.309739,0.787685
-0.594331,0.294844,0.741021
-0.586298,0.331531,0.728343
-0.628805,0.442555,0.770647
-0.637831,0.448804,0.616015
-0.580152,0.36934,0.40376
-0.425883,0.26489,0.274589
-0.245589,0.160135,0.2025
-0.159949,0.097937,0.168406
-0.152041,0.086141,0.166138
-0.152956,0.121786,0.154395
-0.152507,0.155141,0.105194
-0.122,0.166705,0.03087
-0.066791,0.156792,-0.025906
0.003899,0.108399,-0.042716
0.080971,0.057659,-0.023648
0.163529,0.020195,0.02382
0.241279,0.006834,0.054374
0.31241,0.026313,0.06253
0.366115,0.084849,0.055038
0.392402,0.14646,0.035738
0.389387,0.207353,0.026023
0.360655,0.265478,0.017164
0.308526,0.322242,0.020622
0.24833,0.374674,0.022224
0.191963,0.416812,0.022876
0.149629,0.449064,0.018453
0.117844,0.466738,0.022741
0.093129,0.474473,0.03658
0.060316,0.461195,0.058249
0.034759,0.436709,0.100797
0.012153,0.40784,0.159995
0.040115,0.460728,0.241611
-0.08028,0.47298,0.325464
-0.156707,0.41262,0.356738
-0.113367,0.357931,0.381447
-0.049615,0.317777,0.382777
-0.014393,0.289645,0.369488
0.011785,0.277659,0.352792
0.021515,0.261476,0.335234
0.028954,0.226998,0.309417
0.035418,0.203162,0.285561
0.056464,0.208149,0.2758
0.070272,0.210289,0.252632
0.084648,0.208486,0.221669
0.102798,0.223333,0.196498
0.125428,0.248166,0.191373
0.144774,0.268752,0.201195
0.150646,0.296494,0.218039
0.223295,0.298762,0.237476
0.305828,0.311817,0.248428
0.302225,0.346173,0.270983
0.337847,0.46969,0.228635
0.312913,0.648555,0.086815
0.006602,0.615089,-0.000586
-0.203156,0.48108,0.15557
-0.126711,0.442844,0.404184
-0.031622,0.455398,0.513335
-0.003412,0.466568,0.541788
-0.012733,0.512245,0.539722
-0.061876,0.528941,0.507071
-0.122845,0.461822,0.44734
-0.151439,0.351919,0.42254
-0.154565,0.312159,0.440248
-0.147192,0.370757,0.434975
-0.150871,0.473472,0.39916
-0.141907,0.568827,0.340738
-0.119935,0.638143,0.300025
-0.097588,0.662432,0.267787
-0.074054,0.642786,0.243875
-0.06744,0.591181,0.243988
-0.123958,0.470307,0.282206
-0.271727,0.264361,0.345587
-0.405169,0.128391,0.376418
-0.380319,0.118846,0.38901
-0.208013,0.179627,0.403515
0.008056,0.242626,0.424028
0.188064,0.259943,0.448302
0.281341,0.221036,0.487853
0.277884,0.128666,0.512832
0.238689,0.042271,0.496357
0.246774,0.004154,0.471584
0.295492,4.2e-05,0.448074
0.351923,-0.019018,0.427995
0.384504,-0.0513,0.442811
0.376641,-0.115448,0.472377
0.357603,-0.199424,0.514982
0.340477,-0.288601,0.547917
0.315233,-0.375347,0.560143
0.270911,-0.453168,0.535228
0.211076,-0.485082,0.502537
0.133685,-0.49863,0.456332
0.057649,-0.504293,0.403658
-0.005005,-0.494969,0.359655
-0.072402,-0.465544,0.314774
-0.12864,-0.425328,0.266663
-0.157656,-0.383846,0.214321
-0.147124,-0.342928,0.162477
-0.073163,-0.298744,0.12765
-0.005193,-0.276133,0.090566
-0.009052,-0.255979,0.058214
-0.063014,-0.247087,0.02424
-0.133644,-0.241572,-0.002947
-0.207076,-0.233303,-0.025204
-0.267552,-0.229165,-0.040622
-0.286321,-0.217076,-0.045639
-0.276302,-0.205082,-0.041334
-0.250651,-0.204009,-0.02874
-0.212239,-0.197728,-0.01938
-0.182082,-0.167264,-0.027674
-0.16472,0.019703,-0.045583
-0.177938,0.138832,-0.015552
-0.209197,0.194653,0.014321
-0.22843,0.242729,0.028218
-0.232843,0.260461,0.065496
-0.229014,0.25624,0.112622
-0.226739,0.238048,0.141876
-0.245459,0.208924,0.158078
-0.269634,0.190482,0.150297
-0.297613,0.189774,0.114091
-0.329161,0.209766,0.068957
-0.351325,0.209675,0.018729
-0.344984,0.20598,-0.034283
-0.299585,0.20346,-0.062534
-0.221004,0.196027,-0.090007
-0.13247,0.183798,-0.1197
-0.049174,0.166547,-0.152873
0.029481,0.135351,-0.170571
0.075356,0.094982,-0.191519
0.100302,0.083073,-0.199708
0.125397,0.09019,-0.183591
0.125546,0.095033,-0.165543
0.110609,0.102855,-0.1435
0.089964,0.10057,-0.131457
0.075362,0.10635,-0.118934
0.070558,0.1141,-0.105052
0.070649,0.111444,-0.090301
0.076795,0.099995,-0.084744
0.096165,0.074812,-0.086379
0.126957,0.047941,-0.085644
0.153864,0.038136,-0.078249
0.165182,0.045931,-0.079347
0.173149,0.060064,-0.083618
0.187156,0.07406,-0.076884
0.196279,0.082345,-0.06776
0.199912,0.087107,-0.054833
0.190652,0.089181,-0.043948
0.178374,0.077503,-0.027412
0.177727,0.072376,-0.004503
0.186376,0.072782,0.01953
0.198584,0.072397,0.046297
0.209861,0.079639,0.079416
0.214633,0.073408,0.095665
0.226318,0.061888,0.115911
0.270315,0.050562,0.172869
0.297412,0.046196,0.211544
0.326452,0.040852,0.255194
0.381779,0.053356,0.308239
0.404579,0.069184,0.320517
0.419335,0.079639,0.327967
0.409389,0.077453,0.296684
0.383285,0.046695,0.262129
0.377334,0.025532,0.248464
0.39494,0.076482,0.292537
0.411137,0.165876,0.351571
0.37197,0.201841,0.338728
0.307404,0.194793,0.264875
0.307531,0.157069,0.194407
0.390358,0.124288,0.135329
0.506463,0.065204,0.099965
0.593776,0.012071,0.100944
0.626332,-0.030664,0.113561
0.603425,-0.100708,0.137042
0.553189,-0.142911,0.169218
0.507353,-0.173256,0.172599
0.511583,-0.189012,0.194176
0.558094,-0.20408,0.238723
0.61179,-0.214984,0.287948
0.639852,-0.232288,0.319516
0.644092,-0.25703,0.356194
0.647021,-0.296967,0.385005
0.662381,-0.333458,0.410301
0.673042,-0.358258,0.432769
0.667339,-0.373866,0.453352
0.667002,-0.397651,0.482551
0.652885,-0.412347,0.515305
0.626938,-0.432429,0.542414
0.598952,-0.437397,0.573608
0.497236,-0.496207,0.610805
0.451274,-0.480294,0.641545
0.449438,-0.453113,0.654125
0.461205,-0.452183,0.653588
0.481584,-0.45684,0.650715
0.477202,-0.490491,0.631023
0.428868,-0.537071,0.606149
0.365941,-0.575972,0.577413
0.307348,-0.613089,0.543394
0.275668,-0.607078,0.522433
0.269593,-0.519322,0.529031
0.246973,-0.288393,0.518894
0.18763,-0.079548,0.489857
-0.012501,-0.227103,0.360524
-0.294565,-0.589635,0.248247
-0.455508,-0.687899,0.217918
-0.674445,-0.57336,0.180683
-0.871186,-0.47029,0.149418
-1.029103,-0.426759,0.153763
-1.247652,-0.337202,0.211706
-1.314887,-0.247529,0.224152
-1.317211,-0.21444,0.236183
-1.277847,-0.24783,0.240251
-1.247092,-0.270611,0.208565
-1.201264,-0.272103,0.168376
-1.146576,-0.250219,0.150941
-1.143501,-0.205129,0.149269
-1.153054,-0.178063,0.164156
-1.152401,-0.174093,0.158089
-1.142934,-0.174064,0.163081
-1.156693,-0.175284,0.1734
-1.197735,-0.176683,0.195388
-1.248342,-0.171189,0.207087
-1.30795,-0.182933,0.195669
-1.334018,-0.191559,0.182141
-1.344473,-0.183576,0.165331
-1.34775,-0.18567,0.151467
-1.330657,-0.202994,0.11661
-1.304447,-0.202936,0.094629
-1.296271,-0.180554,0.120207
-1.289672,-0.140052,0.157423
-1.294359,-0.170732,0.133897
-1.304439,-0.216907,0.103929
-1.316932,-0.261679,0.049601
-1.287942,-0.273828,0.021189
-1.253407,-0.248097,-0.008103
-1.210091,-0.194438,-0.012571
-1.187398,-0.129326,-0.009765
-1.184448,-0.078496,-0.005288
-1.186662,-0.036484,0.007091
-1.197288,-0.02557,-0.00574
-1.199669,-0.019835,-0.011273
-1.182239,-0.023477,-0.026341
-1.139817,-0.016189,-0.027169
-1.081671,-0.030425,-0.030075
-1.004225,-0.033881,-0.019601
-0.931818,-0.033323,-0.010234
-0.874506,-0.027867,-0.011714
-0.826079,-0.016937,-0.017171
-0.787394,-0.011271,-0.035684
-0.711519,0.01357,-0.041097
-0.639199,0.050757,-0.046372
-0.615606,0.062086,-0.069942
-0.624337,0.063232,-0.072552
-0.656676,0.07185,-0.04544
-0.725715,0.077001,-0.021133
-0.813474,0.07597,0.003236
-0.903334,0.073747,0.028598
-0.982122,0.080232,0.046007
-1.043646,0.089828,0.052733
-1.093302,0.090424,0.06937
-1.128845,0.092573,0.087566
-1.152581,0.098526,0.092707
-1.165166,0.098506,0.089251
-1.188729,0.087807,0.08839
-1.221836,0.084705,0.0831
-1.266917,0.085371,0.080275
-1.317658,0.073568,0.085332
-1.379403,0.064205,0.084738
-1.468339,0.056397,0.069959
-1.591325,0.055289,0.069817
-1.709792,0.033277,0.075444
-1.779036,-0.022689,0.082731
-1.828422,-0.096881,0.091191
-1.887902,-0.141981,0.104917
-1.861264,-0.16975,0.114202
-1.770669,-0.167366,0.108519
-1.673742,-0.146845,0.080501
-1.540474,-0.135782,0.050571
-1.378158,-0.109659,0.038183
-1.246612,-0.091595,0.024552
-1.158207,-0.085378,-0.000557
-1.080805,-0.093834,-0.005631
-1.017063,-0.106761,0.011893
-0.9723,-0.116444,0.026799
-0.93396,-0.118072,0.046139
-0.891838,-0.125951,0.052983
-0.85086,-0.137934,0.05246
-0.798096,-0.134163,0.05146
-0.761391,-0.12373,0.052042
-0.725925,-0.099929,0.053493
-0.703156,-0.086764,0.066285
-0.694616,-0.095229,0.074745
-0.689975,-0.101414,0.078217
-0.70099,-0.101782,0.08362
-0.722265,-0.105216,0.087232
-0.747205,-0.112064,0.08636
-0.777316,-0.113572,0.081144
-0.801762,-0.115855,0.06905
-0.810456,-0.118053,0.055256
-0.804372,-0.124943,0.037103
-0.773017,-0.132039,0.020566
-0.731102,-0.123596,0.003999
-0.673425,-0.116561,-0.009409
-0.598222,-0.102222,-0.016989
-0.513284,-0.095858,-0.022109
-0.42256,-0.091952,-0.034249
-0.337383,-0.09426,-0.034885
-0.261751,-0.083554,-0.036925
-0.165266,-0.07228,-0.032733
-0.068323,-0.070362,-0.0361
0.033277,-0.072016,-0.041857
0.128218,-0.084533,-0.044839
0.222165,-0.08717,-0.059736
0.309204,-0.097324,-0.071898
0.402939,-0.095569,-0.092107
0.502922,-0.08781,-0.119093
0.624281,-0.074503,-0.147578
0.765706,-0.062422,-0.17949
0.914536,-0.041543,-0.203423
1.064735,-0.015293,-0.226456
1.228528,0.003747,-0.238153
1.394325,0.021439,-0.22081
1.541335,0.028407,-0.19349
1.645947,-0.004795,-0.182605
1.684724,-0.079675,-0.195204
1.67359,-0.123696,-0.180367
1.590671,-0.117554,-0.147083
1.453877,-0.083372,-0.111154
1.259956,-0.065444,-0.100213
1.014685,-0.091313,-0.101532
0.755749,-0.111377,-0.106177
0.501592,-0.086734,-0.109915
0.274053,-0.038512,-0.091217
0.066686,0.013603,-0.081767
-0.125645,0.043795,-0.073795
-0.300494,0.054681,-0.067067
-0.454407,0.057241,-0.055829
-0.579721,0.049803,-0.038134
-0.668387,0.027557,-0.02359
-0.711787,0.003991,-0.018951
-0.702398,0.010554,-0.015473
-0.646781,0.051012,-0.097029
-0.491159,0.143511,-0.266457
-0.258671,0.178541,-0.394237
0.016952,0.083549,-0.24935
0.319607,-0.09546,-0.010934
0.606697,-0.326091,0.126658
0.797057,-0.465033,0.224503
0.792656,-0.523699,0.219851
0.800183,-0.463151,0.294785
0.823958,-0.350197,0.400148
0.822481,-0.300342,0.498443
0.850254,-0.270861,0.652126
0.903755,-0.271601,0.783595
1.007098,-0.293471,0.894913
1.170689,-0.303301,1.005973
1.367154,-0.31177,1.094097
1.549334,-0.323061,1.151541
1.690452,-0.317866,1.207376
1.768351,-0.294026,1.302523
1.795151,-0.266034,1.426731
1.732423,-0.270027,1.528941
1.629728,-0.31129,1.592024
1.525824,-0.360971,1.66854
1.424262,-0.417078,1.710531
1.375259,-0.427923,1.752342
1.37487,-0.435441,1.778995
1.370217,-0.432894,1.775956
1.382231,-0.437339,1.779309
1.3905,-0.438414,1.772644
1.404345,-0.455684,1.75557
1.434636,-0.46915,1.733717
1.474208,-0.485858,1.730262
1.492222,-0.514277,1.717439
1.491475,-0.518937,1.689515
1.491669,-0.533452,1.6689
1.474076,-0.516095,1.632269
1.403708,-0.505859,1.617369
1.289357,-0.491079,1.600486
1.182128,-0.467817,1.596142
1.08143,-0.432519,1.594972
0.997998,-0.403561,1.593151
0.919327,-0.384955,1.599374
0.847019,-0.358035,1.601069
0.775008,-0.340668,1.588737
0.721222,-0.319472,1.561398
0.706193,-0.292176,1.54302
0.731987,-0.280169,1.525224
0.777648,-0.266125,1.492992
0.849426,-0.245892,1.48023
0.941649,-0.220689,1.450967
1.051909,-0.175138,1.410155
1.15788,-0.100006,1.412815
1.227963,-0.028476,1.431968
1.284953,0.02772,1.437782
1.341624,0.083368,1.42504
1.469982,0.137512,1.387427
1.629341,0.218115,1.387146
1.739566,0.308063,1.396593
1.82041,0.403745,1.391151
1.881256,0.500515,1.363668
1.912091,0.615055,1.345217
1.90041,0.705491,1.331208
1.832554,0.789611,1.313096
1.693999,0.882615,1.283834
1.498048,0.993895,1.223918
1.076369,1.160445,1.103022
0.504525,1.334259,1.007496
-0.019991,1.501375,0.941926
-0.391095,1.618675,0.848953
-0.272206,1.513866,0.633448
0.474455,1.165742,0.474809
1.202771,0.660048,0.364327
1.240842,0.209353,0.253985
0.909668,-0.179786,0.13964
0.758366,-0.479807,0.037584
0.756332,-0.494458,-0.004062
0.785444,-0.389047,-0.022505
0.757728,-0.28317,-0.078246
0.616545,-0.235876,-0.165533
0.504457,-0.214508,-0.180858
0.654427,-0.159413,-0.105971
0.959058,-0.102097,-0.071386
1.090374,-0.132799,-0.102676
0.963349,-0.22037,-0.16354
0.576069,-0.202234,-0.219071
0.371971,-0.200391,-0.175685
0.313583,-0.127669,-0.105378
0.19345,-0.007474,-0.008243
0.060543,0.061392,0.060342
-0.072686,0.045093,0.106127
-0.175157,0.001233,0.12571
-0.147954,-0.045551,0.098423
-0.093082,-0.022361,0.050443
-0.084722,0.021609,0.010728
-0.10446,0.053475,-0.003114
-0.097671,0.048379,-0.015114
-0.074659,0.020865,-0.031519
-0.04203,-0.006692,-0.050911
0.135476,-0.076874,-0.040723
0.245417,-0.05814,-0.024165
0.299726,-0.041589,-0.010806
0.316937,-0.045367,-0.013034
0.246917,-0.032447,-0.01512
0.199425,-0.06882,-0.013281
0.283419,-0.120945,0.008092
0.239658,-0.061539,0.039762
0.115629,-0.01093,0.059172
-0.049527,-0.015624,0.058531
-0.28919,0.00763,0.038757
-0.428549,0.075049,0.040939
-0.483269,0.12914,0.049118
-0.56489,0.16403,0.04796
-0.64376,0.181561,0.047948
-0.685915,0.156061,0.069737
-0.710273,0.12059,0.094319
-0.710981,0.058875,0.116958
-0.714208,0.028472,0.119264
-0.73853,0.026933,0.113948
-0.786594,0.037468,0.126172
-0.85353,0.042285,0.146638
-0.935154,0.041782,0.152516
-1.019416,0.039504,0.141519
-1.10461,0.042459,0.137106
-1.188882,0.02623,0.137895
-1.271527,0.010584,0.139899
-1.375651,0.017758,0.141395
-1.550585,0.034621,0.130094
-1.684913,0.004677,0.124847
-1.755868,-0.06267,0.139929
-1.848626,-0.104511,0.14847
-1.982617,-0.116529,0.163331
-2.218309,-0.094795,0.170096
-2.495478,-0.085417,0.198288
-2.726843,-0.101316,0.206898
-2.962738,-0.148958,0.198191
-3.185652,-0.171653,0.186842
-3.443029,-0.145524,0.197768
-3.789333,-0.091083,0.202525
-4.138015,-0.041463,0.193018
-4.341935,-0.008637,0.179106
-4.41631,-0.000489,0.171909
-4.394213,-0.024186,0.166909
-4.260395,-0.081915,0.153244
-4.140446,-0.168232,0.15953
-4.13316,-0.250074,0.124894
-4.185328,-0.30902,-0.0056
-4.230036,-0.367792,-0.040277
-4.255625,-0.411574,-0.010243
-4.29048,-0.426664,0.043901
-4.314579,-0.382299,0.063368
-4.331353,-0.310582,0.0505
-4.32538,-0.246148,0.029694
-4.313778,-0.202576,0.012221
-4.275557,-0.145588,-0.005139
-4.207054,-0.085421,-0.03572
-4.132607,-0.031755,-0.059164
-4.060127,0.013419,-0.06679
-3.994281,0.052022,-0.054263
-3.786422,0.060281,-0.047609
-3.440064,0.031858,-0.055982
-3.050601,-0.011399,-0.044045
-2.677589,-0.080435,-0.003049
-2.338686,-0.152752,0.052924
-2.059405,-0.214358,0.111171
-1.856256,-0.274368,0.147898
-1.836783,-0.313466,0.161228
-1.911937,-0.27657,0.202417
-1.924174,-0.212011,0.255346
-1.857178,-0.1762,0.290186
-1.795855,-0.154849,0.301806
-1.756509,-0.127214,0.316073
-1.69639,-0.100797,0.333078
-1.66763,-0.094898,0.31954
-1.630863,-0.081956,0.309012
-1.578529,-0.077596,0.296543
-1.566852,-0.106213,0.24712
-1.521132,-0.136437,0.216854
-1.463487,-0.152633,0.210437
-1.456017,-0.160654,0.194366
-1.431098,-0.165129,0.181297
-1.398065,-0.150718,0.170323
-1.364396,-0.139605,0.150628
-1.32825,-0.11877,0.131298
-1.301988,-0.100656,0.11966
-1.288979,-0.085868,0.106885
-1.261236,-0.082322,0.101233
-1.228303,-0.085564,0.094987
-1.204226,-0.094613,0.098421
-1.178422,-0.099735,0.103299
-1.152885,-0.103813,0.104322
-1.126068,-0.09771,0.105346
-1.10437,-0.090684,0.117625
-1.086422,-0.081301,0.127109
-1.064766,-0.075056,0.138342
-1.043512,-0.067838,0.144584
-1.01752,-0.067563,0.148336
-1.011913,-0.07668,0.144996
-0.985827,-0.076242,0.138535
-0.968771,-0.076535,0.117355
-0.942001,-0.065444,0.103482
-0.908064,-0.060537,0.096495
-0.892666,-0.057708,0.07877
-0.854181,-0.047031,0.082646
-0.81427,-0.049278,0.076029
-0.787252,-0.048511,0.071051
-0.763068,-0.045913,0.060218
-0.732474,-0.032035,0.051919
-0.668947,-0.038913,0.042398
-0.646961,-0.03183,0.037489
-0.636876,-0.020427,0.050693
-0.611346,-0.023765,0.047436
-0.576925,-0.020339,0.051507
-0.553142,-0.013721,0.053836
-0.537014,-0.019471,0.053237
-0.520453,-0.014283,0.053414
-0.509702,-0.02524,0.031666
-0.498499,-0.018656,0.029385
-0.475149,-0.008653,0.034504
-0.45478,-0.017543,0.015851
-0.434446,-0.016057,0.010388
-0.428768,-0.009939,0.012427
-0.427392,0.000458,0.016611
-0.419992,0.006928,0.021783
-0.42039,0.009838,0.015698
-0.421807,0.011719,0.024522
-0.419506,0.008177,0.022884
-0.413515,-0.003734,0.025565
-0.409512,-0.012831,0.020114
-0.409164,-0.016209,0.024516
-0.412951,-0.021604,0.027259
-0.414835,-0.017039,0.032126
-0.416835,-0.018024,0.032929
-0.419202,-0.014102,0.038456
-0.420244,-0.009532,0.041214
-0.423878,-0.013806,0.041189
-0.424176,-0.016055,0.037818
-0.422522,-0.015853,0.044156
-0.428988,-0.021335,0.039624
-0.428209,-0.019023,0.040176
-0.432283,-0.022116,0.040938
-0.433913,-0.025748,0.038335
-0.435199,-0.028467,0.036363
-0.439903,-0.032537,0.041818
-0.445822,-0.03134,0.045546
-0.448497,-0.032547,0.052122
-0.456689,-0.032502,0.053737
-0.462848,-0.036786,0.053509
-0.468323,-0.033836,0.057638
-0.478537,-0.034918,0.057278
-0.480874,-0.035997,0.059011
-0.491609,-0.036527,0.061918
-0.502366,-0.038739,0.063544
-0.506178,-0.039901,0.068281
-0.519636,-0.024354,0.064328
-0.535335,-0.01802,0.073475
-0.544076,-0.022435,0.088485
-0.554332,-0.034685,0.101475
-0.567174,-0.047769,0.113707
-0.573808,-0.048728,0.119264
-0.57807,-0.049147,0.118812
-0.590211,-0.050658,0.119149
-0.59842,-0.053006,0.114832
-0.607979,-0.057769,0.112285
-0.618568,-0.053453,0.105674
-0.62152,-0.055088,0.102321
-0.623879,-0.047542,0.105292
-0.624274,-0.050865,0.10386
-0.613658,-0.054944,0.105584
-0.586218,-0.05682,0.114385
-0.656653,-0.071161,0.08832
-0.579886,-0.047398,0.133348
-0.590821,-0.056277,0.144156
-0.582624,-0.103939,0.11033
-0.51242,-0.118986,0.128148
-0.567333,-0.101389,0.127167
-0.563026,-0.098935,0.138701
-0.570198,-0.08176,0.125661
-0.541376,-0.028194,0.098347
-0.483707,0.004283,0.054223
-0.397345,0.008516,0.026126
-0.32648,0.000826,0.025342
-0.287098,-0.008494,0.029892
-0.234045,-0.046712,0.019085
-0.206824,-0.062735,0.018445
-0.196335,-0.042119,0.03446
-0.184469,-0.026396,0.033347
-0.181358,0.002249,0.034685
-0.162406,0.039764,0.04885
-0.146352,0.010424,0.054161
-0.112662,-0.022079,0.065015
-0.099736,-0.017412,0.082751
-0.075009,-0.000522,0.067412
-0.102699,0.009785,0.048362
-0.135846,0.004279,0.061657
-0.034386,-0.013521,0.068017
-0.038622,-0.030127,0.04864
-0.000882,-0.050178,-0.005582
0.038994,-0.05673,-0.028382
0.003662,-0.026898,-0.021693
4.4e-05,0.010731,0.014975
0.021815,0.02161,0.0314
0.05362,0.034738,0.034208
0.079983,0.029518,0.028972
0.084607,0.006855,0.013154
0.096848,-0.00689,-0.002186
0.097171,-0.012535,-0.018527
0.087004,-0.013442,-0.01196
0.09452,-0.012948,0.006049
0.099102,-0.011517,0.016697
0.11166,0.001692,0.016696
0.117027,0.019751,0.009733
0.109782,0.018103,0.011995
0.096927,0.013057,0.000138
0.078582,0.011192,-0.008917
0.059671,0.014121,-0.020522
0.035413,0.009213,-0.026801
0.028496,0.009682,-0.029019
0.014176,0.015511,-0.023454
-0.004475,0.018918,-0.016107
-0.023364,0.01496,-0.007193
-0.051439,0.017219,-0.001787
-0.070935,0.023294,-0.002125
-0.093111,0.025723,-0.007103
-0.111964,0.026911,-0.007655
-0.128838,0.027432,-0.010909
-0.139619,0.027424,-0.011219
-0.154668,0.023848,-0.005406
-0.168081,0.025593,0.004122
-0.176044,0.021409,0.002342
-0.18312,0.018356,0.005216
-0.191481,0.021154,0.002855
-0.192152,0.022151,-0.006175
-0.196566,0.018784,-0.014117
-0.191672,0.014309,-0.011954
-0.189994,0.00615,-0.013202
-0.192931,0.006855,-0.003117
-0.200252,0.011349,0.000607
-0.202923,0.013877,0.002789
-0.209746,0.017443,0.002231
-0.218339,0.023156,-0.000781
-0.225022,0.025386,-0.00208
-0.236373,0.023248,-0.01348
-0.248978,0.016192,-0.008078
-0.254557,0.004909,-0.012013
-0.267981,0.003395,-0.017396
-0.278006,0.000487,-0.014091
-0.285901,0.002759,-0.017212
-0.297755,-0.00069,-0.010435
-0.310077,0.001692,-0.00938
-0.321226,0.001962,-0.007634
-0.332202,0.002203,-0.005665
-0.344476,-0.004227,0.001242
-0.359488,-0.006554,0.004251
-0.368919,-0.009122,0.00832
-0.378376,-0.008142,0.010387
-0.389883,-0.010136,0.013856
-0.401513,-0.015834,0.015064
-0.409901,-0.019589,0.020374
-0.426357,-0.032327,0.025279
-0.443697,-0.030662,0.029706
-0.461936,-0.031435,0.028764
-0.471309,-0.024988,0.023922
-0.483686,-0.026001,0.021598
-0.499369,-0.024626,0.025258
-0.509337,-0.029157,0.029633
-0.519008,-0.033775,0.027844
-0.522703,-0.034717,0.041147
-0.533454,-0.034706,0.035468
-0.537168,-0.032403,0.037301
-0.547731,-0.031556,0.038474
-0.552517,-0.040038,0.045379
-0.558507,-0.041717,0.046476
-0.560345,-0.044264,0.046528
-0.564727,-0.040911,0.050501
-0.562888,-0.046346,0.053933
-0.562548,-0.046841,0.061771
-0.563049,-0.051703,0.061663
-0.562368,-0.051139,0.062849
-0.558782,-0.048471,0.060395
-0.554669,-0.049362,0.063837
-0.549507,-0.048509,0.063697
-0.542854,-0.053954,0.061522
-0.533578,-0.057291,0.064746
-0.526804,-0.054041,0.065676
-0.517656,-0.058772,0.06307
-0.508152,-0.058107,0.064433
-0.495787,-0.063092,0.066891
-0.478292,-0.060773,0.069959
-0.463685,-0.060534,0.067093
-0.44672,-0.059904,0.06232
-0.431195,-0.059518,0.067841
-0.412251,-0.059706,0.061344
-0.394884,-0.060852,0.064761
-0.378233,-0.061345,0.066278
-0.363262,-0.05866,0.067385
-0.344345,-0.055507,0.061504
-0.32773,-0.056155,0.058248
-0.310439,-0.057769,0.059397
-0.29138,-0.057493,0.058649
-0.26814,-0.051449,0.05383
-0.246289,-0.048277,0.049879
-0.225288,-0.049606,0.044126
-0.196762,-0.04759,0.036184
-0.176196,-0.04921,0.023753
-0.153708,-0.042337,0.014911
-0.138398,-0.046848,0.006463
-0.126,-0.05687,0.008862
-0.127439,-0.065759,0.009166
-0.144315,-0.080898,0.008979
-0.16413,-0.090419,0.009172
-0.179033,-0.093001,0.009342
-0.151357,-0.106454,0.015915
-0.059131,-0.137228,0.023977
0.154512,-0.198515,0.04695
0.511018,-0.273837,0.0774
0.974546,-0.321344,0.105213
1.474999,-0.323788,0.102183
1.912427,-0.280208,0.058892
2.21613,-0.182869,-0.02832
2.402365,-0.060618,-0.125289
2.480405,0.055454,-0.192608
2.44986,0.122095,-0.203422
2.319714,0.141335,-0.164579
2.141904,0.119657,-0.094348
1.951644,0.083161,-0.022052
1.75196,0.055405,0.017402
1.545465,0.059056,0.023682
1.322718,0.082655,0.007769
1.147272,0.098059,-0.02466
1.007795,0.098807,-0.038669
0.879147,0.07321,-0.047007
0.784009,0.023819,-0.053032
0.719973,-0.046393,-0.037821
0.64631,-0.120147,-0.022832
0.564764,-0.151365,-0.029384
0.474254,-0.176664,-0.021318
0.44101,-0.219819,-0.034223
0.402574,-0.244218,-0.049163
0.405384,-0.258908,-0.079681
0.425459,-0.231361,-0.129284
0.476918,-0.213547,-0.180759
0.567477,-0.218576,-0.21569
0.687372,-0.218718,-0.231019
0.831501,-0.207029,-0.248021
1.006908,-0.186028,-0.263169
1.195305,-0.141123,-0.282379
1.379301,-0.088087,-0.302999
1.567938,-0.025192,-0.319825
1.749074,0.039273,-0.328809
1.922503,0.104714,-0.312183
2.067268,0.171837,-0.29209
2.190765,0.226022,-0.269051
2.300334,0.267659,-0.251462
2.380501,0.29359,-0.224427
2.405676,0.301744,-0.199263
2.377768,0.308723,-0.179684
2.29429,0.291262,-0.175016
2.191234,0.262484,-0.167339
2.077723,0.222438,-0.15544
1.95685,0.190083,-0.143115
1.829276,0.15707,-0.132971
1.723234,0.138076,-0.120667
1.650325,0.133211,-0.107914
1.608912,0.143837,-0.100195
1.592042,0.168736,-0.094895
1.587852,0.19145,-0.09459
1.598813,0.206372,-0.103836
1.619417,0.208316,-0.121617
1.636656,0.189636,-0.143214
1.651802,0.167387,-0.173548
1.656913,0.135932,-0.210172
1.652823,0.102692,-0.252705
1.63759,0.080865,-0.294343
1.606936,0.050651,-0.327213
1.572866,0.021637,-0.361459
1.533847,0.003243,-0.382298
1.494573,-0.018275,-0.405364
1.456112,-0.029105,-0.424646
1.419894,-0.03535,-0.436525
1.393208,-0.014998,-0.43822
1.360974,-0.023574,-0.404005
1.350276,-0.016546,-0.38119
1.327616,0.019286,-0.371857
1.339604,0.046325,-0.357193
1.344057,0.080344,-0.332628
1.351932,0.108157,-0.29342
1.37974,0.122636,-0.250246
1.405335,0.13208,-0.21133
1.426505,0.154297,-0.183199
1.436432,0.173258,-0.166661
1.459777,0.195532,-0.15917
1.508603,0.22229,-0.155966
1.537821,0.261694,-0.142166
1.547058,0.29084,-0.110959
1.585284,0.297068,-0.078994
1.654684,0.302337,-0.051579
1.741327,0.309682,-0.063162
1.867669,0.298994,-0.103192
1.938744,0.281962,-0.140399
1.94111,0.241075,-0.192243
1.931379,0.193652,-0.24626
1.916691,0.156903,-0.285895
1.884939,0.147645,-0.313394
1.82539,0.161902,-0.323989
1.767133,0.172577,-0.312253
1.695258,0.172574,-0.291853
1.630027,0.159565,-0.274107
1.594418,0.129396,-0.268513
1.571432,0.094739,-0.28117
1.560322,0.056338,-0.305264
1.581935,0.023726,-0.339438
1.600089,0.014617,-0.37376
1.636261,0.030851,-0.388465
1.676626,0.059565,-0.405471
1.713464,0.065238,-0.396744
1.716822,0.062034,-0.369177
1.709235,0.048211,-0.353982
1.705431,0.03302,-0.341183
1.695355,0.032929,-0.346537
1.70177,0.042345,-0.363715
1.708617,0.048951,-0.376569
1.707538,0.050541,-0.382148
1.705153,0.055046,-0.37825
1.700128,0.051075,-0.371465
1.693686,0.056309,-0.367768
1.681404,0.061853,-0.364486
1.650197,0.060662,-0.365857
1.615706,0.065089,-0.36352
1.587903,0.065392,-0.350157
1.568394,0.081649,-0.327985
1.550707,0.112595,-0.311357
1.556267,0.153815,-0.290814
1.587853,0.170786,-0.295004
1.649295,0.183839,-0.295182
1.703423,0.192482,-0.295009
1.778253,0.191987,-0.301636
1.85171,0.195777,-0.311652
1.931324,0.210587,-0.314834
2.01766,0.228407,-0.321761
2.08409,0.248675,-0.311099
2.128473,0.271137,-0.308682
2.161945,0.29651,-0.328969
2.16239,0.304263,-0.337747
2.132384,0.295191,-0.323531
2.071421,0.288097,-0.310198
1.912929,0.281161,-0.278983
1.772856,0.262621,-0.247877
1.672008,0.253467,-0.249987
1.563609,0.30198,-0.233592
1.506603,0.312648,-0.198732
1.492691,0.310511,-0.176372
1.479001,0.295305,-0.15882
1.452576,0.227507,-0.137527
1.418958,0.167123,-0.115219
1.312844,0.146773,-0.119782
1.18833,0.138568,-0.131252
1.037365,0.135892,-0.13953
0.920476,0.116632,-0.147794
0.828063,0.120484,-0.158426
0.76111,0.130341,-0.169258
0.730359,0.14258,-0.17518
0.722262,0.162146,-0.193667
0.702534,0.164077,-0.201957
0.672651,0.152922,-0.207877
0.644245,0.13626,-0.204857
0.61843,0.124908,-0.205748
0.584183,0.126059,-0.210443
0.581128,0.116927,-0.218615
0.600991,0.109209,-0.221721
0.631123,0.117435,-0.229219
0.669216,0.126133,-0.231354
0.721497,0.140557,-0.238554
0.768877,0.155529,-0.23731
0.814352,0.166964,-0.244328
0.829997,0.182519,-0.244358
0.81342,0.20377,-0.235474
0.811101,0.209061,-0.22776
0.808973,0.219498,-0.221792
0.819702,0.229912,-0.220537
0.826425,0.227477,-0.229606
0.815389,0.2264,-0.238268
0.758573,0.228304,-0.240769
0.679069,0.218833,-0.229558
0.596844,0.201137,-0.217554
0.50906,0.185419,-0.211023
0.431245,0.174723,-0.199349
0.368296,0.180165,-0.191326
0.314741,0.183618,-0.182252
0.260612,0.187295,-0.179857
0.20602,0.19153,-0.169742
0.160698,0.197463,-0.160998
0.12803,0.216065,-0.159226
0.100262,0.229261,-0.159405
0.068351,0.226163,-0.161007
0.029547,0.215366,-0.153616
-0.015682,0.192424,-0.145598
-0.062361,0.181439,-0.142798
-0.110851,0.17985,-0.137679
-0.159802,0.180355,-0.134337
-0.201027,0.175663,-0.130069
-0.246143,0.17708,-0.123923
-0.294384,0.169527,-0.119182
-0.336704,0.160981,-0.109199
-0.374627,0.154483,-0.098777
-0.401937,0.153289,-0.088789
-0.414993,0.152657,-0.084493
-0.422013,0.136263,-0.077835
-0.420365,0.113159,-0.06008
-0.414833,0.102872,-0.059368
-0.378764,0.09552,-0.073057
-0.297391,0.078989,-0.099519
-0.212958,0.069762,-0.120272
-0.143366,0.072541,-0.139788
-0.083418,0.069832,-0.145286
-0.029424,0.074539,-0.151113
0.03053,0.072052,-0.159641
0.084091,0.076563,-0.171807
0.127979,0.078952,-0.184943
0.176542,0.074591,-0.18685
0.216339,0.073398,-0.196767
0.243198,0.079133,-0.202036
0.26992,0.076953,-0.203277
0.284807,0.083541,-0.204453
0.28973,0.090785,-0.21006
0.285024,0.104495,-0.211257
0.278535,0.105823,-0.2087
0.273242,0.107818,-0.205621
0.258381,0.109742,-0.197372
0.233483,0.11737,-0.19542
0.198359,0.122685,-0.193253
0.154193,0.12918,-0.195879
0.110433,0.133788,-0.190885
0.067394,0.134078,-0.191551
0.037537,0.13547,-0.190152
0.00432,0.128655,-0.185849
-0.040409,0.114597,-0.162719
-0.093433,0.096221,-0.145911
-0.123994,0.076897,-0.146009
-0.135268,0.071044,-0.145125
-0.144911,0.058798,-0.149027
-0.142302,0.048489,-0.14852
-0.132172,0.034107,-0.140972
-0.130849,0.041746,-0.146274
-0.111638,0.039598,-0.164689
-0.080541,0.031132,-0.1791
-0.060505,0.025756,-0.204994
-0.044051,0.021756,-0.225089
-0.021747,0.015717,-0.244696
-0.009498,0.008959,-0.255808
0.010946,-0.007507,-0.261609
0.029474,-0.012268,-0.270808
0.049616,-0.015287,-0.28294
0.064916,-0.005907,-0.300026
0.085583,0.007307,-0.317746
0.099235,0.013993,-0.322577
0.118319,0.012081,-0.329551
0.129072,0.010025,-0.328608
0.140727,0.007682,-0.328195
0.146019,0.008648,-0.330859
0.14253,0.001732,-0.330538
0.133877,-0.010259,-0.323068
0.127433,-0.013003,-0.324129
0.118496,-0.010438,-0.320734
0.10981,-0.021042,-0.31734
0.098874,-0.029542,-0.318953
0.082865,-0.028937,-0.313197
0.072864,-0.036207,-0.316052
0.061695,-0.034948,-0.314264
0.052585,-0.040869,-0.313792
0.043129,-0.03922,-0.314316
0.032137,-0.026645,-0.31459
0.023753,-0.033009,-0.307536
0.013549,-0.034353,-0.304353
-0.000276,-0.034955,-0.301339
-0.006871,-0.039642,-0.298886
-0.019012,-0.056839,-0.291435
-0.031713,-0.043023,-0.299542
-0.031479,-0.024377,-0.298248
-0.028709,-0.037925,-0.29245
-0.031391,-0.052212,-0.291149
-0.017025,-0.06021,-0.30017
-0.002851,-0.060432,-0.308585
0.00521,-0.051486,-0.316238
0.018621,-0.034022,-0.326033
0.034439,-0.007083,-0.330476
0.049289,0.018281,-0.331126
0.066391,0.041621,-0.332357
0.078853,0.0517,-0.326404
0.077838,0.058366,-0.329243
0.061839,0.060344,-0.329317
0.058805,0.044327,-0.327614
0.047184,0.037935,-0.330876
0.041198,0.039463,-0.333522
0.042116,0.050328,-0.329149
0.05681,0.057705,-0.343317
0.064851,0.049528,-0.32925
0.045454,0.032061,-0.312701
0.026698,0.006732,-0.31147
0.009193,0.008329,-0.314601
-0.004636,0.021511,-0.308007
-0.005813,0.031926,-0.303639
-0.005078,0.04245,-0.301914
-0.004211,0.053308,-0.300971
-0.006339,0.054502,-0.297709
-0.013626,0.060873,-0.291425
-0.026013,0.072242,-0.292818
-0.036849,0.076278,-0.288399
-0.042571,0.086128,-0.289594
-0.048766,0.098049,-0.285196
-0.050478,0.107826,-0.279127
-0.053197,0.126664,-0.278339
-0.059794,0.140419,-0.284335
-0.068872,0.160473,-0.287291
-0.084218,0.176794,-0.293933
-0.095856,0.185286,-0.294292
-0.105104,0.193555,-0.293379
-0.114518,0.202168,-0.295264
-0.133698,0.199317,-0.29532
-0.160457,0.187037,-0.295104
-0.187254,0.175772,-0.29995
-0.215626,0.167409,-0.300454
-0.235993,0.156764,-0.301528
-0.250444,0.142954,-0.305119
-0.268182,0.136202,-0.311905
-0.289662,0.132421,-0.313795
-0.310996,0.135168,-0.314069
-0.325343,0.124425,-0.310272
-0.338075,0.103959,-0.307919
-0.344519,0.079884,-0.315121
-0.343023,0.070814,-0.325948
-0.33152,0.051133,-0.330053
-0.306383,0.038057,-0.333186
-0.288452,0.035972,-0.349113
-0.261249,0.066131,-0.369716
-0.236259,0.129936,-0.374363
-0.198284,0.172698,-0.362285
-0.148942,0.17254,-0.349881
-0.121447,0.157235,-0.346296
-0.089516,0.132938,-0.34478
-0.065394,0.102989,-0.353122
-0.048299,0.085076,-0.357021
-0.031614,0.076485,-0.35736
-0.013359,0.065795,-0.352004
-0.007766,0.049176,-0.351849
-0.006358,0.013477,-0.358579
-0.005771,0.001176,-0.372285
-0.009321,-0.004061,-0.376998
-0.011609,-0.03337,-0.374487
-0.01546,-0.080535,-0.37829
-0.028676,-0.120702,-0.386348
-0.047678,-0.14447,-0.399448
-0.046137,-0.136876,-0.406064
-0.044924,-0.130075,-0.405379
-0.053085,-0.138666,-0.406984
-0.067042,-0.157139,-0.402926
-0.084373,-0.17131,-0.408748
-0.090727,-0.179736,-0.415942
-0.088751,-0.179806,-0.404799
-0.09087,-0.168696,-0.415413
-0.088964,-0.131458,-0.421652
-0.092527,-0.079684,-0.425039
-0.091165,-0.04652,-0.406098
-0.087968,-0.066809,-0.388454
-0.090773,-0.113888,-0.387965
-0.103889,-0.167246,-0.393428
-0.115547,-0.210315,-0.401738
-0.114928,-0.247976,-0.403407
-0.11152,-0.280069,-0.400056
-0.114782,-0.284846,-0.405803
-0.105327,-0.284377,-0.417961
-0.0911,-0.276195,-0.430223
-0.059894,-0.265741,-0.41627
-0.042839,-0.28595,-0.410886
-0.036694,-0.309786,-0.405258
-0.033428,-0.336877,-0.424254
-0.01891,-0.369214,-0.432219
-0.002982,-0.403731,-0.442322
0.029103,-0.433956,-0.445551
0.059348,-0.439875,-0.440809
0.082133,-0.422506,-0.450845
0.104543,-0.397003,-0.462011
0.126777,-0.390694,-0.465509
0.142124,-0.408678,-0.460517
0.154894,-0.435321,-0.459617
0.164784,-0.459403,-0.465669
0.182615,-0.479229,-0.464213
0.187723,-0.465013,-0.474519
0.197061,-0.437674,-0.477827
0.201117,-0.421465,-0.474562
0.196584,-0.40962,-0.469986
0.199664,-0.404647,-0.463958
0.204793,-0.408219,-0.458905
0.214418,-0.408708,-0.460345
0.20901,-0.371672,-0.457595
0.203865,-0.343289,-0.444222
0.201792,-0.332478,-0.431055
0.191291,-0.336179,-0.429602
0.179096,-0.35812,-0.423113
0.162002,-0.385919,-0.420038
0.153106,-0.41125,-0.408626
0.141271,-0.433616,-0.381613
0.129075,-0.452243,-0.335582
0.125345,-0.474043,-0.306168
0.134673,-0.441907,-0.285783
0.135822,-0.496905,-0.281268
0.111637,-0.472058,-0.377002
0.104847,-0.498819,-0.399418
0.081281,-0.568929,-0.373605
0.059868,-0.617539,-0.329606
0.058118,-0.621624,-0.285125
0.067159,-0.594702,-0.268155
0.06852,-0.555982,-0.263406
0.076548,-0.533432,-0.25705
0.081947,-0.526199,-0.262368
0.096732,-0.519997,-0.27993
0.117775,-0.527789,-0.292565
0.123558,-0.515746,-0.292501
0.136175,-0.50665,-0.298026
0.157342,-0.501603,-0.303066
0.174718,-0.488894,-0.311239
0.190265,-0.475688,-0.316513
0.20856,-0.476801,-0.317621
0.222356,-0.483233,-0.315347
0.230222,-0.488626,-0.320426
0.23213,-0.489995,-0.31735
0.232925,-0.485872,-0.317942
0.235388,-0.513586,-0.307851
0.229631,-0.553578,-0.294811
0.218722,-0.568915,-0.28706
0.207653,-0.560908,-0.289834
0.205872,-0.544897,-0.289698
0.190894,-0.543138,-0.29126
0.165046,-0.554304,-0.281164
0.144265,-0.574917,-0.268781
0.103713,-0.52878,-0.274155
0.073583,-0.460473,-0.306429
0.055999,-0.409599,-0.336458
0.037224,-0.403288,-0.335968
0.01731,-0.395615,-0.32756
0.013859,-0.383243,-0.330801
0.032771,-0.382891,-0.330126
0.042715,-0.390738,-0.322486
0.065709,-0.379016,-0.312763
0.143655,-0.397922,-0.30245
0.177909,-0.374365,-0.305548
0.156011,-0.270748,-0.337519
0.147367,-0.198641,-0.355907
0.124363,-0.201757,-0.352344
0.100384,-0.228711,-0.351527
0.102527,-0.244159,-0.357105
0.068363,-0.224671,-0.346129
0.043976,-0.218324,-0.325231
0.024285,-0.238717,-0.290646
-0.005545,-0.236163,-0.302255
-0.023773,-0.234322,-0.316659
-0.04146,-0.268993,-0.315458
-0.0708,-0.313656,-0.309694
-0.105923,-0.350072,-0.311729
-0.132035,-0.372726,-0.319928
-0.143135,-0.38068,-0.321853
-0.159307,-0.393297,-0.322588
-0.168461,-0.401114,-0.325708
-0.178424,-0.39288,-0.324667
-0.18125,-0.368789,-0.327347
-0.17868,-0.349705,-0.323913
-0.181644,-0.334089,-0.312992
-0.182511,-0.302789,-0.30219
-0.171754,-0.274903,-0.299197
-0.158216,-0.259376,-0.29667
-0.1587,-0.243615,-0.30079
-0.157404,-0.227638,-0.309548
-0.154673,-0.218098,-0.323042
-0.153084,-0.213063,-0.332485
-0.158738,-0.209825,-0.339037
-0.156643,-0.21615,-0.338949
-0.153892,-0.212397,-0.337993
-0.140873,-0.194249,-0.345825
-0.125666,-0.226218,-0.343105
-0.114118,-0.244926,-0.339872
-0.08623,-0.197968,-0.342698
-0.048353,-0.213078,-0.330098
-0.032535,-0.293954,-0.304742
-0.051972,-0.38482,-0.261948
-0.074317,-0.473538,-0.222458
-0.083058,-0.555663,-0.192148
-0.075597,-0.632632,-0.169721
-0.080234,-0.681727,-0.148715
-0.078952,-0.725126,-0.122435
-0.057003,-0.784177,-0.088885
-0.009508,-0.860074,-0.045027
-0.046504,-0.863128,-0.020719
-0.046059,-0.883603,-0.003295
-0.019626,-0.957178,0.016848
-0.030352,-1.006888,0.033959
-0.032337,-1.033254,0.046227
-0.039995,-1.071474,0.075465
-0.031868,-1.065816,0.114549
-0.027338,-1.020156,0.138528
0.002394,-0.92081,0.145143
0.034236,-0.760925,0.127503
0.076725,-0.672211,0.122283
0.120563,-0.759837,0.141322
0.125367,-1.000214,0.218571
0.059512,-1.260274,0.2957
-0.044572,-1.599247,0.335626
-0.083353,-1.696262,0.429186
-0.148545,-1.556013,0.448453
-0.191535,-1.383448,0.365549
-0.137992,-1.209552,0.279573
-0.110713,-1.019565,0.206093
-0.096542,-0.855203,0.149026
-0.072226,-0.747591,0.127877
-0.048479,-0.688486,0.097295
-0.029927,-0.664264,0.066087
-0.009209,-0.654727,0.034235
0.00265,-0.655882,0.008514
0.01921,-0.658918,-0.024506
0.03306,-0.662908,-0.053439
0.040358,-0.659339,-0.081143
0.057135,-0.650053,-0.093953
0.074158,-0.63777,-0.107299
0.101563,-0.604552,-0.126177
0.131005,-0.555927,-0.153431
0.16344,-0.504571,-0.165877
0.173131,-0.479621,-0.163805
0.166281,-0.501758,-0.135697
0.165456,-0.512615,-0.122617
0.162471,-0.510784,-0.118586
0.147598,-0.512132,-0.117168
0.141024,-0.51726,-0.118202
0.127862,-0.514834,-0.125833
0.12804,-0.508516,-0.119579
0.11327,-0.507143,-0.108844
0.096167,-0.517249,-0.083673
0.09644,-0.530139,-0.070956
0.093544,-0.522047,-0.067097
0.090603,-0.522359,-0.06174
0.085608,-0.515302,-0.064527
0.098828,-0.518796,-0.074519
0.101409,-0.502969,-0.093198
0.104659,-0.49372,-0.104229
0.121553,-0.47669,-0.114843
0.12247,-0.459033,-0.125013
0.133245,-0.42389,-0.140889
0.124736,-0.376087,-0.166395
0.131098,-0.327238,-0.209808
0.132566,-0.289439,-0.25548
0.130806,-0.302535,-0.282732
0.124704,-0.330071,-0.290309
0.099058,-0.340898,-0.311679
0.059579,-0.33944,-0.327685
0.034901,-0.336511,-0.343606
0.015121,-0.335956,-0.350307
-0.002784,-0.331189,-0.363596
-0.020529,-0.323875,-0.367434
-0.042164,-0.325079,-0.368708
-0.065954,-0.318876,-0.375722
-0.100175,-0.30762,-0.38819
-0.130981,-0.312994,-0.39025
-0.15551,-0.300075,-0.396815
-0.18056,-0.301401,-0.3975
-0.204597,-0.313351,-0.386143
-0.227259,-0.335552,-0.366181
-0.244357,-0.34221,-0.347199
-0.261822,-0.34643,-0.335953
-0.29413,-0.331382,-0.356589
-0.30078,-0.326927,-0.37726
-0.293806,-0.326633,-0.395992
-0.280052,-0.325429,-0.425087
-0.276083,-0.310804,-0.460503
-0.261302,-0.270584,-0.502463
-0.230432,-0.217812,-0.528392
-0.189608,-0.183299,-0.531115
-0.156562,-0.166948,-0.534134
-0.126368,-0.138567,-0.536199
-0.097029,-0.096291,-0.539336
-0.070234,-0.068122,-0.533854
-0.038339,-0.050889,-0.536968
-0.01912,-0.047705,-0.541596
-0.011016,-0.04858,-0.537225
-0.007361,-0.057124,-0.53432
-0.01172,-0.06381,-0.527541
-0.019161,-0.084688,-0.51793
-0.036508,-0.093126,-0.520593
-0.042586,-0.094239,-0.525399
-0.046469,-0.071859,-0.519465
-0.044711,-0.06001,-0.513326
-0.055622,-0.05284,-0.501367
-0.050533,-0.052859,-0.488234
-0.061096,-0.050923,-0.475392
-0.084293,-0.068012,-0.466184
-0.110789,-0.084828,-0.453797
-0.140676,-0.107245,-0.447015
-0.177193,-0.121722,-0.439598
-0.200828,-0.141338,-0.433124
-0.229114,-0.164585,-0.423726
-0.254875,-0.177021,-0.424001
-0.276889,-0.186504,-0.411637
-0.290062,-0.170562,-0.401017
-0.300129,-0.174296,-0.394999
-0.311933,-0.173289,-0.38366
-0.324869,-0.181699,-0.383271
-0.338471,-0.177456,-0.37353
-0.327745,-0.164703,-0.373395
-0.322115,-0.15319,-0.37442
-0.311047,-0.137863,-0.375867
-0.309074,-0.12196,-0.377129
-0.301333,-0.109267,-0.382741
-0.285356,-0.077921,-0.379607
-0.265695,-0.06662,-0.39251
-0.247526,-0.056267,-0.387865
-0.236516,-0.04382,-0.401016
-0.224455,-0.042933,-0.400272
-0.197467,-0.032043,-0.406621
-0.189033,-0.031732,-0.423309
-0.156747,-0.012055,-0.409338
-0.155349,-0.032417,-0.436118
-0.127471,-0.061855,-0.432521
-0.106455,0.01344,-0.444576
-0.077912,0.07642,-0.45124
-0.052138,0.03771,-0.452773
-0.042753,-0.020783,-0.467229
-0.03126,-0.091743,-0.466512
-0.04479,-0.076474,-0.502367
-0.005251,-0.07984,-0.471781
-0.007859,-0.04833,-0.520308
0.029562,-0.007948,-0.50763
0.05108,0.000895,-0.486647
0.049447,0.004921,-0.50623
0.036209,0.045335,-0.526434
0.030241,0.027684,-0.520301
0.026428,-0.020401,-0.511971
0.008652,-0.054532,-0.521454
-0.014924,-0.064383,-0.534314
-0.027363,-0.060596,-0.527597
-0.027563,-0.045635,-0.533456
-0.02896,-0.011128,-0.528571
-0.030369,0.014333,-0.536245
-0.041425,0.02891,-0.545362
-0.031447,0.034038,-0.54182
-0.041287,0.046205,-0.556415
-0.031529,0.046228,-0.557116
-0.049569,0.054631,-0.573497
-0.042176,0.050398,-0.579837
-0.046535,0.031439,-0.589112
-0.049865,0.049134,-0.591669
-0.047183,0.067482,-0.588742
-0.057565,0.087862,-0.607953
-0.056505,0.060735,-0.610384
-0.068876,0.040766,-0.61394
-0.082105,0.063834,-0.62128
-0.080661,0.077166,-0.609011
-0.083546,0.06671,-0.618434
-0.087762,0.052954,-0.632942
-0.091957,0.038668,-0.62422
-0.103125,0.021892,-0.625607
-0.112082,0.006936,-0.638551
-0.108846,0.006319,-0.634922
-0.114681,0.016307,-0.638254
-0.103521,0.023095,-0.631259
-0.097902,0.022431,-0.624576
-0.093633,0.028301,-0.627872
-0.090368,0.023565,-0.626215
-0.094889,0.022779,-0.628638
-0.096495,0.025424,-0.620896
-0.08897,0.008897,-0.621414
-0.080821,-0.002873,-0.625411
-0.077072,0.003011,-0.630362
-0.073388,0.025586,-0.627075
-0.072971,0.043992,-0.621799
-0.065732,0.053497,-0.6217
-0.061364,0.049669,-0.62722
-0.063927,0.046603,-0.631367
-0.071268,0.048842,-0.628008
-0.071143,0.052977,-0.627247
-0.073145,0.051441,-0.627804
-0.070189,0.042529,-0.632681
-0.07156,0.042138,-0.636298
-0.072061,0.043521,-0.635451
-0.071739,0.049331,-0.633389
-0.071058,0.056469,-0.631897
-0.075822,0.065101,-0.635131
-0.07192,0.075703,-0.633282
-0.068097,0.084226,-0.634462
-0.07219,0.088809,-0.635594
-0.078736,0.08878,-0.638726
-0.081393,0.080652,-0.636716
-0.080286,0.074526,-0.634417
-0.077696,0.077019,-0.636026
-0.072163,0.08238,-0.637306
-0.070193,0.09119,-0.642599
-0.067352,0.109548,-0.634809
-0.064528,0.127628,-0.635359
-0.060755,0.132822,-0.631845
-0.061932,0.123141,-0.627545
-0.067054,0.10949,-0.632422
-0.068322,0.099716,-0.629397
-0.066032,0.095578,-0.630522
-0.060157,0.096404,-0.627239
-0.0595,0.105766,-0.624377
-0.052945,0.120755,-0.61622
-0.050372,0.13152,-0.616887
-0.041936,0.129502,-0.614084
-0.03134,0.113324,-0.612478
-0.036366,0.096843,-0.610578
-0.040747,0.071191,-0.607498
-0.043869,0.051207,-0.610326
-0.040725,0.041027,-0.605816
-0.042637,0.031357,-0.60166
-0.042363,0.027569,-0.598788
-0.04489,0.022414,-0.599219
-0.048864,0.009871,-0.599106
-0.044654,-0.000894,-0.591917
-0.044653,-0.010104,-0.589822
-0.03832,-0.011706,-0.590338
-0.030676,0.00081,-0.588568
-0.023949,0.009649,-0.58341
-0.019199,0.031518,-0.582701
-0.018124,0.046311,-0.579567
-0.007762,0.055067,-0.576556
0.0013,0.062966,-0.581726
0.003187,0.069768,-0.580475
0.007824,0.07739,-0.580363
0.004608,0.091327,-0.581813
0.010078,0.102926,-0.58061
0.008611,0.113217,-0.578579
0.001957,0.129301,-0.578937
-0.008197,0.139564,-0.573975
-0.016327,0.148688,-0.572945
-0.026228,0.144694,-0.568676
-0.041774,0.142088,-0.56923
-0.05293,0.136405,-0.564647
-0.066087,0.132712,-0.561322
-0.075324,0.125637,-0.559494
-0.084095,0.116239,-0.552355
-0.096764,0.111815,-0.549576
-0.108373,0.103841,-0.54978
-0.115238,0.098807,-0.544193
-0.115584,0.08873,-0.543888
-0.121683,0.083778,-0.546126
-0.123423,0.070419,-0.542894
-0.120357,0.057714,-0.548932
-0.104393,0.048848,-0.551228
-0.092481,0.03629,-0.552119
-0.071357,0.035878,-0.552458
-0.046341,0.041496,-0.553946
-0.015861,0.048871,-0.554356
0.012743,0.064448,-0.554024
0.041495,0.076463,-0.550698
0.064261,0.083212,-0.551049
0.090648,0.097207,-0.547993
0.108651,0.099999,-0.548816
0.116126,0.096887,-0.547567
0.12505,0.096532,-0.547308
0.130338,0.09736,-0.548671
0.127374,0.101566,-0.545193
0.125093,0.110427,-0.540343
0.109563,0.123861,-0.545502
0.090454,0.126983,-0.537175
0.069811,0.128827,-0.534882
0.049729,0.127036,-0.534967
0.027768,0.123597,-0.534843
0.01416,0.117449,-0.532207
-0.001852,0.117024,-0.534043
-0.01597,0.110266,-0.531276
-0.023985,0.106075,-0.533491
-0.038378,0.100381,-0.53447
-0.042026,0.090303,-0.536147
-0.048098,0.091822,-0.541398
-0.046496,0.094899,-0.538325
-0.046189,0.107204,-0.540127
-0.047284,0.109717,-0.542559
-0.036225,0.106152,-0.543691
-0.031495,0.104698,-0.545569
-0.022054,0.102351,-0.556117
-0.014761,0.112177,-0.552957
-0.003207,0.125466,-0.554164
0.012548,0.129134,-0.556056
0.023726,0.140101,-0.560512
0.032998,0.143445,-0.560796
0.036528,0.151058,-0.561935
0.049245,0.157163,-0.563432
0.050076,0.155786,-0.558257
0.045469,0.151958,-0.562719
0.037415,0.148558,-0.558026
0.033451,0.151835,-0.561097
0.026783,0.151859,-0.557688
0.017429,0.15518,-0.555664
0.008865,0.1577,-0.554436
-0.001344,0.155114,-0.554238
-0.007576,0.152596,-0.556761
-0.008406,0.148476,-0.553817
-0.013927,0.138886,-0.557753
-0.01819,0.145415,-0.557853
-0.01016,0.141998,-0.556217
-0.004055,0.140326,-0.561027
-0.005196,0.146959,-0.565675
0.00663,0.148616,-0.570391
0.007943,0.148832,-0.569569
0.014675,0.142897,-0.573139
0.020457,0.139507,-0.575812
0.026874,0.139498,-0.577723
0.031801,0.137676,-0.581442
0.037912,0.140973,-0.580587
0.043534,0.14566,-0.579821
0.047738,0.149832,-0.577676
0.049754,0.158968,-0.570704
0.05073,0.157361,-0.569224
0.052548,0.155018,-0.562401
0.056573,0.154025,-0.560197
0.048736,0.161051,-0.553758
0.046813,0.174994,-0.548118
0.044865,0.191654,-0.541805
0.042678,0.19392,-0.541596
0.037401,0.198469,-0.537701
0.03194,0.201718,-0.537548
0.018046,0.203153,-0.536738
0.008424,0.200117,-0.535482
-0.005506,0.192908,-0.536132
-0.024788,0.187293,-0.537036
-0.043078,0.178646,-0.539218
-0.055064,0.169713,-0.540954
-0.066225,0.15638,-0.542648
-0.081615,0.15602,-0.544621
-0.086488,0.1518,-0.547038
-0.086616,0.149501,-0.54896
-0.088598,0.151984,-0.551088
-0.093175,0.149062,-0.561063
-0.09702,0.149179,-0.569512
-0.097974,0.147779,-0.574838
-0.099231,0.15158,-0.579059
-0.09983,0.15178,-0.582659
-0.102524,0.158801,-0.586033
-0.107384,0.167946,-0.583772
-0.105993,0.175085,-0.579666
-0.10736,0.183526,-0.575915
-0.109617,0.185021,-0.566346
-0.108193,0.190865,-0.561383
-0.10071,0.197872,-0.554141
-0.102289,0.204242,-0.549127
-0.105864,0.210484,-0.548469
-0.101188,0.208192,-0.555956
-0.100026,0.206497,-0.553627
-0.092164,0.205109,-0.554285
-0.084591,0.201372,-0.564975
-0.076006,0.195181,-0.577375
-0.07434,0.183391,-0.580853
-0.067894,0.179868,-0.585626
-0.063074,0.180685,-0.591281
-0.064017,0.179673,-0.597946
-0.065967,0.17807,-0.60278
-0.074264,0.173805,-0.600722
-0.075857,0.170446,-0.606203
-0.084834,0.158419,-0.610785
-0.100179,0.141608,-0.617532
-0.109929,0.126971,-0.615825
-0.12507,0.107793,-0.620395
-0.137626,0.08158,-0.629714
-0.152525,0.058279,-0.635755
-0.167117,0.037707,-0.639497
-0.187531,0.024501,-0.643957
-0.196935,0.002947,-0.647432
-0.205255,-0.006475,-0.649741
-0.220877,-0.018448,-0.655028
-0.23317,-0.027873,-0.654005
-0.24095,-0.040823,-0.661375
-0.236559,-0.052597,-0.660653
-0.231002,-0.047906,-0.657138
-0.214051,-0.035395,-0.657637
-0.196782,-0.025158,-0.658031
-0.180469,-0.011666,-0.657652
-0.166681,0.001331,-0.656925
-0.163823,0.005751,-0.654025
-0.159358,0.009469,-0.651585
-0.154467,0.008949,-0.655577
-0.153448,0.000764,-0.655234
-0.160083,-0.003986,-0.657627
-0.165601,-0.007835,-0.655311
-0.171945,-0.015101,-0.655413
-0.184359,-0.022672,-0.657488
-0.206263,-0.026084,-0.653875
-0.233392,-0.032268,-0.652565
-0.257564,-0.03995,-0.653283
-0.296201,-0.047734,-0.650939
-0.326409,-0.059202,-0.646611
-0.365824,-0.074799,-0.647812
-0.397153,-0.093126,-0.648418
-0.41489,-0.097694,-0.649378
-0.433834,-0.106584,-0.644522
-0.446974,-0.104634,-0.647457
-0.457737,-0.104027,-0.652193
-0.456074,-0.099911,-0.65188
-0.450915,-0.092284,-0.654611
-0.441274,-0.083382,-0.659803
-0.432579,-0.07368,-0.662223
-0.414445,-0.068365,-0.667928
-0.396214,-0.055164,-0.671226
-0.369801,-0.043793,-0.672644
-0.34022,-0.021526,-0.677659
-0.305347,0.00468,-0.681482
-0.272068,0.024421,-0.677966
-0.243411,0.034175,-0.678866
-0.214155,0.034868,-0.676668
-0.195861,0.037549,-0.674206
-0.177321,0.038322,-0.665782
-0.155255,0.045995,-0.664897
-0.133507,0.054058,-0.66067
-0.121477,0.063949,-0.655037
-0.130035,0.076448,-0.649197
-0.137344,0.075293,-0.643016
-0.155658,0.065901,-0.634925
-0.181231,0.04692,-0.631011
-0.217012,0.039542,-0.621647
-0.263576,0.007387,-0.613052
-0.30043,-0.025456,-0.6134
-0.333498,-0.024697,-0.598922
-0.371088,-0.008352,-0.593121
-0.399956,0.004572,-0.585838
-0.427243,0.00597,-0.576504
-0.454617,0.007168,-0.575443
-0.477985,0.001021,-0.574334
-0.488071,0.016252,-0.574745
-0.47771,0.052127,-0.570646
-0.455588,0.10109,-0.573635
-0.429468,0.147779,-0.575012
-0.399271,0.182106,-0.580183
-0.380354,0.224593,-0.579929
-0.356606,0.252832,-0.578782
-0.330009,0.270758,-0.589639
-0.29794,0.291472,-0.591354
-0.271708,0.305937,-0.593126
-0.249207,0.316295,-0.589348
-0.227788,0.318504,-0.596176
-0.262679,0.289955,-0.593381
-0.230715,0.245773,-0.591394
-0.188787,0.221133,-0.61111
-0.172751,0.236128,-0.60346
-0.181745,0.264504,-0.59606
-0.164604,0.262795,-0.589559
-0.134352,0.238804,-0.583083
-0.138727,0.225201,-0.577523
-0.155257,0.200183,-0.569448
-0.170988,0.180347,-0.556678
-0.170602,0.163551,-0.546373
-0.171067,0.155339,-0.54419
-0.167502,0.146573,-0.539775
-0.166595,0.148643,-0.533727
-0.167517,0.154332,-0.529361
-0.167264,0.162894,-0.513312
-0.172615,0.156818,-0.503703
-0.168623,0.167596,-0.498198
-0.177869,0.165389,-0.494786
-0.174528,0.169871,-0.491807
-0.155473,0.173458,-0.480498
-0.128019,0.167639,-0.466922
-0.11847,0.171437,-0.468269
-0.097977,0.17214,-0.465822
-0.068589,0.164365,-0.458691
-0.035213,0.159068,-0.458922
-0.004935,0.152052,-0.460191
0.02495,0.157625,-0.453006
0.061213,0.161425,-0.449023
0.091263,0.181171,-0.453231
0.115163,0.200511,-0.447774
0.119857,0.21277,-0.443372
0.132971,0.204477,-0.436348
0.145493,0.205667,-0.432123
0.164203,0.216199,-0.420381
0.16584,0.227801,-0.412066
0.157564,0.217243,-0.402451
0.147931,0.19112,-0.395244
0.13291,0.15185,-0.391325
0.13053,0.127649,-0.361423
0.107455,0.12591,-0.361741
0.097311,0.147545,-0.345176
0.097843,0.109557,-0.32682
0.096177,0.090826,-0.338858
0.08419,0.075714,-0.331673
0.051796,0.062358,-0.317858
0.069279,0.099339,-0.314702
0.086886,0.132342,-0.30852
0.114349,0.129575,-0.290786
0.102431,0.11903,-0.300162
0.098141,0.055598,-0.287619
0.057662,0.030176,-0.291058
0.042037,0.039894,-0.279666
0.048519,0.038075,-0.251631
0.035041,0.0279,-0.281549
0.051569,0.018881,-0.296275
0.067806,0.09064,-0.287496
0.109016,0.196803,-0.240818
0.11627,0.219423,-0.234495
0.105522,0.206117,-0.266528
0.108702,0.106954,-0.264509
0.041912,0.048185,-0.322263
0.034032,0.019079,-0.287248
0.069798,0.033789,-0.226299
0.077026,0.146685,-0.246663
0.087642,0.249814,-0.254089
0.074228,0.265916,-0.248745
0.050976,0.221211,-0.247066
0.013936,0.158941,-0.24412
-0.025669,0.119688,-0.236885
-0.048019,0.107592,-0.230226
-0.052518,0.118973,-0.230037
-0.059862,0.152021,-0.227423
-0.078401,0.180509,-0.217025
-0.108393,0.195157,-0.21327
-0.135018,0.20896,-0.205699
-0.142993,0.2227,-0.202441
-0.160028,0.225099,-0.203022
-0.183271,0.226732,-0.207894
-0.18937,0.204926,-0.198926
-0.218694,0.176803,-0.215384
-0.219029,0.150692,-0.197256
-0.223406,0.19059,-0.199035
-0.211033,0.221435,-0.19014
-0.207248,0.227622,-0.195333
-0.203525,0.218534,-0.189257
-0.202417,0.214232,-0.184858
-0.196946,0.196759,-0.190912
-0.187188,0.187554,-0.20102
-0.174245,0.202612,-0.197269
-0.158259,0.235402,-0.189279
-0.134787,0.257074,-0.187826
-0.116107,0.244921,-0.178148
-0.114983,0.231717,-0.191003
-0.114353,0.2367,-0.194977
-0.114095,0.252531,-0.196899
-0.09523,0.255515,-0.192253
-0.095001,0.254283,-0.20307
-0.091936,0.249087,-0.203173
-0.099711,0.241108,-0.201157
-0.104861,0.221583,-0.202274
-0.116029,0.199658,-0.198895
-0.129512,0.185131,-0.200732
-0.144692,0.179765,-0.197402
-0.156075,0.180594,-0.19559
-0.168318,0.186303,-0.185746
-0.166079,0.206038,-0.18218
-0.175385,0.223253,-0.17858
-0.186889,0.229352,-0.169899
-0.190394,0.235539,-0.16543
-0.192213,0.243095,-0.161462
-0.19099,0.251106,-0.155346
-0.194573,0.263285,-0.151145
-0.195417,0.270215,-0.143313
-0.193514,0.270385,-0.13821
-0.199537,0.265894,-0.133982
-0.202543,0.257229,-0.129071
-0.206116,0.24498,-0.120707
-0.204207,0.231505,-0.11767
-0.199068,0.228021,-0.111817
-0.195657,0.213826,-0.116326
-0.196071,0.205078,-0.111708
-0.191404,0.209307,-0.10031
-0.179639,0.208379,-0.101416
-0.169332,0.196209,-0.097892
-0.165211,0.16882,-0.099494
-0.161123,0.1449,-0.094825
-0.15669,0.128961,-0.092793
-0.140961,0.12072,-0.091946
-0.112332,0.115442,-0.089242
-0.09926,0.114598,-0.0889
-0.087479,0.109138,-0.079875
-0.077717,0.091266,-0.079472
-0.072829,0.074065,-0.076737
-0.076388,0.050529,-0.069802
-0.079052,0.036704,-0.068684
-0.073507,0.032107,-0.06599
-0.068803,0.032961,-0.058857
-0.061989,0.020608,-0.05445
-0.067405,0.001188,-0.053158
-0.071114,-0.01374,-0.04884
-0.076957,-0.023742,-0.045843
-0.077,-0.03529,-0.043304
-0.074655,-0.048111,-0.035451
-0.076762,-0.05272,-0.036244
-0.066221,-0.059369,-0.025903
-0.075929,-0.073217,-0.041108
-0.064211,-0.084314,-0.028907
-0.060472,-0.055663,-0.029343
-0.04236,-0.040734,-0.028065
-0.029406,-0.040798,-0.034237
-0.017181,-0.043646,-0.034486
-0.01017,-0.040354,-0.037125
0.002115,-0.044052,-0.045334
0.015371,-0.045404,-0.047928
0.027498,-0.046387,-0.052227
0.036594,-0.044219,-0.050591
0.054506,-0.034343,-0.056648
0.071604,-0.023395,-0.055566
0.090065,-0.014795,-0.055155
0.103461,-0.020368,-0.055242
0.107091,-0.032853,-0.060405
0.1072,-0.047927,-0.065129
0.106316,-0.06247,-0.070071
0.107069,-0.072744,-0.071858
0.102482,-0.080281,-0.077479
0.113776,-0.077783,-0.070056
0.105458,-0.063153,-0.067751
0.101984,-0.068854,-0.071929
0.105482,-0.06545,-0.062862
0.092847,-0.064965,-0.068213
0.095043,-0.060076,-0.061211
0.087474,-0.063413,-0.0645
0.08143,-0.05549,-0.055523
0.079294,-0.032747,-0.050999
0.07052,-0.022522,-0.048211
0.064576,-0.025287,-0.040856
0.053725,-0.033972,-0.038551
0.043633,-0.029601,-0.032029
0.027358,-0.02898,-0.032835
0.02977,-0.026947,-0.027314
0.023875,-0.041983,-0.028816
0.011521,-0.060789,-0.038147
0.00637,-0.051619,-0.030486
-0.001219,-0.01279,-0.033861
0.003194,0.018891,-0.026608
-0.002152,0.030049,-0.021967
0.00936,0.055327,-0.01373
0.00997,0.063541,-0.018014
0.016243,0.067418,-0.009838
0.00158,0.106446,-0.010054
0.00136,0.108755,0.007518
-0.011191,0.138929,-0.001566
0.005396,0.126255,0.018356
-0.009507,0.118922,0.009014
-0.019024,0.113242,0.007362
-0.025411,0.091926,0.031661
-0.066172,0.087967,0.013577
-0.060207,0.139283,0.019494
-0.045501,0.264091,0.073775
-0.027129,0.417856,0.110454
-0.0046,0.488897,0.129693
0.014592,0.398105,0.1154
0.034563,0.285078,0.106028
-0.005683,0.210064,0.094103
-0.058143,0.17313,0.101701
-0.088663,0.138205,0.123518
-0.070909,0.082422,0.125756
-0.045522,0.090384,0.120195
-0.043729,0.12385,0.125325
-0.055532,0.134435,0.137065
-0.067729,0.159296,0.142796
-0.05423,0.157892,0.162723
-0.039107,0.104015,0.163005
-0.03356,0.04837,0.154207
-0.038619,0.053512,0.146341
-0.071637,0.139355,0.136424
-0.066085,0.344215,0.155296
-0.042923,0.443781,0.201621
-0.011618,0.414384,0.193094
-0.001412,0.315247,0.178579
-0.049658,0.219778,0.17103
-0.118673,0.126535,0.169571
-0.158541,0.075466,0.162432
-0.163352,0.087021,0.163474
-0.148205,0.148343,0.16915
-0.154953,0.196674,0.17973
-0.179559,0.206482,0.190423
-0.203763,0.181697,0.187475
-0.223322,0.141262,0.188953
-0.239101,0.112341,0.193379
-0.246216,0.101133,0.19025
-0.249934,0.102773,0.19105
-0.253052,0.113038,0.19223
-0.261083,0.131347,0.202885
-0.266536,0.149985,0.205683
-0.268963,0.155241,0.210307
-0.272553,0.153837,0.216275
-0.277157,0.144386,0.220019
-0.277902,0.131787,0.218446
-0.273812,0.110579,0.217514
-0.277472,0.094301,0.217921
-0.283477,0.076097,0.216285
-0.283527,0.061885,0.218535
-0.273502,0.057664,0.217404
-0.273441,0.053791,0.215333
-0.262088,0.045861,0.212764
-0.24951,0.044212,0.209933
-0.237092,0.039002,0.205266
-0.226946,0.028347,0.198639
-0.218782,0.016328,0.19701
-0.206211,-0.000931,0.194518
-0.196393,-0.020482,0.194194
-0.187384,-0.040154,0.192661
-0.186279,-0.056347,0.197086
-0.185238,-0.070699,0.197179
-0.180317,-0.091462,0.19769
-0.176565,-0.108436,0.194993
-0.172311,-0.128891,0.194337
-0.167117,-0.145286,0.194604
-0.161971,-0.164881,0.197387
-0.155945,-0.180289,0.193661
-0.14513,-0.189859,0.197985
-0.140265,-0.196493,0.193227
-0.132813,-0.205752,0.191758
-0.119586,-0.208452,0.190312
-0.109944,-0.212055,0.190759
-0.094372,-0.214167,0.186735
-0.082277,-0.206046,0.184313
-0.07382,-0.204559,0.184087
-0.0586,-0.203191,0.177111
-0.048049,-0.207913,0.172391
-0.038825,-0.212073,0.172406
-0.028233,-0.215074,0.170129
-0.023235,-0.221063,0.161555
-0.013016,-0.234048,0.15912
0.004295,-0.275539,0.178767
-0.01934,-0.30144,0.144369
-0.022845,-0.299968,0.141262
-0.004004,-0.276825,0.143375
0.034035,-0.262471,0.144594
0.05352,-0.251786,0.136373
0.065126,-0.247526,0.139184
0.072425,-0.26089,0.136911
0.081629,-0.277904,0.137071
0.080473,-0.30665,0.135873
0.079935,-0.330247,0.141303
0.078332,-0.349088,0.138877
0.077771,-0.360669,0.136968
0.077636,-0.370152,0.139508
0.074283,-0.380826,0.145564
0.068603,-0.381973,0.14592
0.063384,-0.389285,0.149427
0.05594,-0.405374,0.1431
0.049619,-0.421958,0.141347
0.040095,-0.432351,0.139601
0.032552,-0.440647,0.135358
0.023504,-0.451063,0.127579
0.019377,-0.458986,0.124683
0.015693,-0.458972,0.122369
0.011488,-0.461727,0.116953
0.012606,-0.461847,0.117689
0.013081,-0.462763,0.112126
0.011367,-0.461733,0.113352
0.016319,-0.45168,0.107824
0.021444,-0.444101,0.110517
0.028079,-0.431243,0.105118
0.029407,-0.412868,0.104151
0.039888,-0.404651,0.105795
0.040881,-0.398465,0.104334
0.037114,-0.401519,0.103413
0.028902,-0.403991,0.104015
0.02047,-0.420296,0.106334
0.013917,-0.431892,0.107487
0.005711,-0.440407,0.110301
-0.005952,-0.439577,0.114716
0.018529,-0.333108,0.159545
0.079898,-0.21829,0.146662
0.108641,-0.184014,0.157265
0.100235,-0.201774,0.156755
0.078414,-0.228067,0.159474
0.067828,-0.24672,0.161958
0.068741,-0.247687,0.165383
0.068045,-0.232586,0.163924
0.069466,-0.19501,0.17197
0.072385,-0.144777,0.175559
0.08255,-0.108381,0.175335
0.08264,-0.080857,0.17556
0.075417,-0.059952,0.17629
0.059537,-0.046684,0.179198
0.047546,-0.039069,0.179889
0.035454,-0.030929,0.175551
0.023379,-0.022021,0.178575
0.010569,-0.020003,0.180755
-0.003231,-0.010633,0.184331
-0.013779,-0.003567,0.183273
-0.01815,-0.001322,0.187033
-0.020412,-0.003092,0.189442
-0.021894,-0.013582,0.188991
-0.031343,-0.032261,0.19111
-0.035039,-0.049412,0.190168
-0.030278,-0.06755,0.193042
-0.024357,-0.076576,0.187207
-0.017245,-0.097422,0.189164
-0.016269,-0.110452,0.191184
-0.012578,-0.131507,0.188691
0.004321,-0.147508,0.185116
0.016043,-0.155005,0.184529
0.02887,-0.149411,0.183452
0.032523,-0.146896,0.190181
0.049239,-0.142191,0.182738
0.075535,-0.132367,0.179648
0.101633,-0.123498,0.176205
0.114944,-0.114244,0.176582
0.125248,-0.115724,0.168387
0.143328,-0.113063,0.160062
0.158598,-0.103095,0.161717
0.170913,-0.087687,0.15768
0.174274,-0.075203,0.156141
0.178146,-0.072624,0.156403
0.177003,-0.069048,0.158039
0.171571,-0.070696,0.158673
0.153682,-0.076163,0.162173
0.122411,-0.07059,0.156199
0.143539,-0.08596,0.197474
0.075383,-0.108792,0.157098
0.029217,-0.148329,0.156365
0.085234,-0.123394,0.270762
0.003337,-0.058748,0.167383
0.011282,-0.162695,0.197775
-0.042528,-0.23098,0.195996
-0.045148,-0.221641,0.224582
-0.056821,-0.22503,0.222667
-0.055084,-0.311706,0.217517
-0.086467,-0.408913,0.206839
-0.062783,-0.403743,0.226136
-0.053048,-0.34865,0.239927
-0.020202,-0.331637,0.236406
0.005382,-0.286347,0.226251
0.027005,-0.23132,0.238767
0.051155,-0.161929,0.250254
0.082963,-0.099058,0.249297
0.118334,-0.043593,0.252116
0.133304,-0.028257,0.247031
0.135078,-0.04192,0.243571
0.12591,-0.075719,0.252489
0.100753,-0.116339,0.246514
0.076891,-0.150411,0.247162
0.046813,-0.167292,0.244539
0.015455,-0.175062,0.242039
-0.005412,-0.175408,0.242478
-0.026897,-0.18815,0.238403
-0.056119,-0.212057,0.228579
-0.086613,-0.228411,0.223892
-0.104639,-0.229162,0.217742
-0.106354,-0.195894,0.213831
-0.091156,-0.155498,0.207344
-0.076149,-0.120386,0.197183
-0.075383,-0.097972,0.187721
-0.077587,-0.096251,0.171036
-0.087561,-0.115554,0.155587
-0.105774,-0.125206,0.140265
-0.120069,-0.135189,0.128683
-0.130598,-0.120392,0.1178
-0.1274,-0.104724,0.10455
-0.120227,-0.081471,0.09449
-0.118734,-0.064415,0.085493
-0.122334,-0.040659,0.072234
-0.126916,-0.022197,0.068607
-0.131972,-0.015278,0.060143
-0.135951,-0.014059,0.05125
-0.143164,-0.018826,0.043453
-0.148569,-0.016439,0.038149
-0.149797,-0.011724,0.031089
-0.149544,-0.004634,0.025181
-0.153066,0.003537,0.020804
-0.154999,0.017121,0.017493
-0.157566,0.039681,0.012939
-0.157905,0.059999,0.009377
-0.160968,0.075465,0.009615
-0.14101,0.10009,0.024187
-0.17065,0.116641,0.01223
-0.157619,0.098308,0.046996
-0.17778,0.133904,0.022475
-0.197393,0.125716,0.016371
-0.169556,0.130168,0.054833
-0.184712,0.177985,0.029632
-0.171885,0.168768,0.050732
-0.176916,0.185952,0.051848
-0.174488,0.200608,0.052278
-0.168093,0.201272,0.058309
-0.164242,0.183652,0.060151
-0.156181,0.172824,0.069966
-0.164567,0.169928,0.054268
-0.129801,0.193767,0.072097
-0.116518,0.245417,0.061659
-0.08482,0.270047,0.072723
-0.069754,0.277735,0.073575
-0.062945,0.271217,0.071969
-0.048703,0.259467,0.076685
-0.036238,0.25372,0.075112
-0.024019,0.252577,0.070842
-0.010805,0.236752,0.08047
-0.019731,0.221624,0.06899
0.009977,0.187304,0.092057
0.001005,0.180275,0.06654
-0.001429,0.154955,0.079606
0.02333,0.155973,0.100163
0.011917,0.162534,0.070427
0.032813,0.15947,0.0857
0.047898,0.189751,0.095289
0.058862,0.19565,0.10071
0.062969,0.131483,0.111904
0.048891,0.050712,0.112835
0.047485,0.008368,0.116911
0.07289,0.024889,0.126451
0.102957,0.073387,0.128106
0.126339,0.127607,0.141671
0.140799,0.177453,0.14958
0.146958,0.201485,0.161479
0.151987,0.193752,0.161951
0.162112,0.146044,0.160801
0.155442,0.093219,0.154669
0.144091,0.052602,0.150611
0.143451,0.029635,0.151602
0.150365,0.011031,0.146533
0.152404,-0.000508,0.13909
0.155603,-0.015107,0.135583
0.161309,-0.021736,0.138324
0.154959,-0.020491,0.125616
0.187766,-0.043039,0.151565
0.159527,-0.071661,0.094732
0.178305,-0.085151,0.127036
0.200372,-0.044428,0.129949
0.207575,0.005812,0.102746
0.216612,-0.027706,0.095967
0.199338,-0.101952,0.113203
0.183087,-0.127731,0.104208
0.184163,-0.1384,0.098788
0.188533,-0.121588,0.098915
0.195146,-0.087611,0.104211
0.190031,-0.045319,0.101667
0.200745,-0.018568,0.114859
0.193096,-0.022648,0.105897
0.182045,-0.052668,0.107331
0.157621,-0.093997,0.111289
0.126209,-0.136137,0.109646
0.105739,-0.176673,0.10396
0.099205,-0.196607,0.105365
0.099539,-0.192121,0.096882
0.090209,-0.192885,0.091182
0.079236,-0.192404,0.084137
0.077076,-0.187863,0.07512
0.080369,-0.175384,0.060847
0.088202,-0.169477,0.048985
0.091291,-0.152767,0.034838
0.090159,-0.134757,0.018116
0.0921,-0.127074,0.006234
0.094556,-0.133318,-0.013269
0.093748,-0.141302,-0.027265
0.09293,-0.155029,-0.043128
0.095078,-0.164159,-0.062957
0.106833,-0.168428,-0.078104
0.116227,-0.167799,-0.095779
0.121813,-0.17069,-0.107926
0.127632,-0.177298,-0.117879
0.133827,-0.174333,-0.123012
0.140191,-0.178477,-0.127973
0.137293,-0.175747,-0.129235
0.123288,-0.172359,-0.12673
0.117787,-0.172204,-0.125778
0.101129,-0.181636,-0.119926
0.080519,-0.180952,-0.112072
0.056732,-0.179991,-0.109492
0.035777,-0.161569,-0.093
0.013753,-0.128457,-0.090535
-0.018196,-0.134994,-0.079383
-0.068882,-0.165492,-0.080006
-0.120567,-0.188951,-0.082052
-0.168552,-0.210869,-0.076918
-0.208068,-0.210845,-0.078426
-0.246769,-0.199145,-0.079744
-0.285146,-0.182021,-0.079855
-0.311686,-0.156789,-0.080739
-0.332911,-0.137892,-0.085279
-0.353028,-0.120229,-0.091632
-0.366803,-0.096361,-0.094292
-0.371423,-0.066635,-0.103474
-0.354177,-0.027342,-0.111973
-0.341728,0.018773,-0.120281
-0.326231,0.062955,-0.133584
-0.31419,0.09735,-0.139055
-0.296392,0.113896,-0.150092
-0.278658,0.12664,-0.156514
-0.257969,0.138851,-0.15941
-0.235617,0.159847,-0.160708
-0.215317,0.182968,-0.165485
-0.197035,0.197507,-0.165169
-0.187366,0.203707,-0.168099
-0.187355,0.186866,-0.163384
-0.187224,0.161081,-0.162956
-0.187872,0.126486,-0.159623
-0.182389,0.09918,-0.157422
-0.186391,0.082896,-0.158386
-0.185296,0.073829,-0.153309
-0.184481,0.073535,-0.148968
-0.17716,0.064803,-0.148347
-0.175184,0.056056,-0.152029
-0.180918,0.039233,-0.147335
-0.18152,0.03,-0.152238
-0.185186,0.021511,-0.151971
-0.18205,0.018793,-0.149195
-0.186792,0.017679,-0.151244
-0.187644,0.022835,-0.157993
-0.186798,0.034183,-0.15554
-0.177678,0.041806,-0.155866
-0.176416,0.060686,-0.158192
-0.18333,0.073559,-0.157064
-0.186555,0.087035,-0.158866
-0.192837,0.105437,-0.158232
-0.199449,0.114446,-0.156645
-0.212099,0.124275,-0.155471
-0.225733,0.123919,-0.153862
-0.244948,0.132503,-0.154768
-0.256832,0.133622,-0.152215
-0.272658,0.13608,-0.150731
-0.289804,0.137993,-0.147274
-0.304122,0.141539,-0.148569
-0.31444,0.140262,-0.148793
-0.326729,0.138099,-0.152381
-0.335789,0.136016,-0.15237
-0.341703,0.143518,-0.157364
-0.347316,0.138358,-0.160752
-0.345708,0.138364,-0.167568
-0.345823,0.131456,-0.16696
-0.347236,0.129033,-0.172882
-0.344126,0.127437,-0.178336
-0.342499,0.118119,-0.187714
-0.335284,0.110985,-0.192861
-0.334655,0.098584,-0.199138
-0.334653,0.089561,-0.205949
-0.332449,0.071531,-0.205122
-0.323926,0.060382,-0.212426
-0.3215,0.046624,-0.220905
-0.31336,0.033472,-0.227708
-0.304501,0.02365,-0.229521
-0.30129,0.019807,-0.233012
-0.284091,0.018691,-0.239283
-0.277485,0.023148,-0.238825
-0.27054,0.029425,-0.23984
-0.263499,0.034482,-0.240029
-0.25865,0.039803,-0.23403
-0.250386,0.045037,-0.232764
-0.2454,0.044308,-0.230411
-0.242654,0.037891,-0.222036
-0.238557,0.032511,-0.220163
-0.241272,0.028952,-0.213288
-0.235711,0.022783,-0.210725
-0.229518,0.023625,-0.203608
-0.226045,0.014449,-0.19782
-0.222059,0.003017,-0.198878
-0.21686,-0.010949,-0.196001
-0.215006,-0.020295,-0.18892
-0.20524,-0.03016,-0.183903
-0.199813,-0.031082,-0.180979
-0.19532,-0.028288,-0.174409
-0.192468,-0.029267,-0.167653
-0.187349,-0.032818,-0.164182
-0.181754,-0.036101,-0.157851
-0.172906,-0.038564,-0.1543
-0.162993,-0.047405,-0.146317
-0.153866,-0.046264,-0.146157
-0.139791,-0.055942,-0.138146
-0.126396,-0.062934,-0.141107
-0.110275,-0.075324,-0.134365
-0.090757,-0.091836,-0.132419
-0.073531,-0.106162,-0.130171
-0.053722,-0.119545,-0.124556
-0.038102,-0.137508,-0.123616
-0.018197,-0.148693,-0.119539
0.002509,-0.156806,-0.118786
0.018755,-0.17201,-0.11373
0.035039,-0.178355,-0.110343
0.052156,-0.194177,-0.102289
0.065725,-0.211428,-0.105377
0.081503,-0.221242,-0.099449
0.102384,-0.224759,-0.096253
0.117316,-0.21904,-0.092098
0.129878,-0.215018,-0.08581
0.139312,-0.207472,-0.080161
0.146306,-0.204879,-0.078633
0.150051,-0.207171,-0.07299
0.147357,-0.210986,-0.068197
0.144849,-0.222306,-0.067694
0.140297,-0.225835,-0.0631
0.128312,-0.227234,-0.058654
0.119575,-0.22637,-0.057016
0.108162,-0.22229,-0.051716
0.090574,-0.211354,-0.050069
0.076776,-0.214788,-0.045079
0.061094,-0.220373,-0.044584
0.04055,-0.22635,-0.039421
0.02482,-0.229239,-0.037022
0.011381,-0.224392,-0.033616
0.000889,-0.218429,-0.028683
-0.007553,-0.210425,-0.025719
-0.013639,-0.198922,-0.026476
-0.020903,-0.192982,-0.021334
-0.025184,-0.188135,-0.020008
-0.020725,-0.177997,-0.02133
-0.021061,-0.172797,-0.01118
-0.017771,-0.167409,-0.011824
-0.011116,-0.152998,-0.005586
-0.006318,-0.133497,-0.002706
-0.003526,-0.116391,-0.000162
-0.005078,-0.10982,0.00618
-0.003439,-0.109372,0.014321
-0.003715,-0.111751,0.014194
-0.001076,-0.106813,0.017171
-0.006217,-0.107525,0.014622
-0.00677,-0.096875,0.019208
-0.013189,-0.086755,0.021004
-0.013745,-0.085749,0.024956
-0.022912,-0.079963,0.026829
-0.031649,-0.078754,0.02482
-0.040552,-0.085931,0.026865
-0.057539,-0.084643,0.026751
-0.068115,-0.084786,0.029542
-0.080475,-0.08373,0.033409
-0.088663,-0.071497,0.031815
-0.099246,-0.060107,0.03387
-0.111385,-0.042857,0.033108
-0.120582,-0.034963,0.034741
-0.132127,-0.026193,0.033555
-0.140774,-0.016908,0.031999
-0.146459,-0.002623,0.031906
-0.150952,0.012723,0.035872
-0.15981,0.021214,0.033555
-0.169253,0.035737,0.037878
-0.177555,0.04688,0.040808
-0.186187,0.051741,0.04352
-0.185527,0.057905,0.045449
-0.188483,0.055946,0.043049
-0.196868,0.05876,0.048802
-0.200199,0.065891,0.052492
-0.201184,0.064505,0.054776
-0.20536,0.062945,0.057871
-0.201848,0.065117,0.05968
-0.199363,0.066239,0.063742
-0.189386,0.07203,0.066314
-0.18823,0.07604,0.066946
-0.179757,0.083252,0.069211
-0.173683,0.090582,0.071437
-0.168748,0.093336,0.070635
-0.156635,0.089736,0.075071
-0.151628,0.09537,0.071967
-0.144458,0.092969,0.071798
-0.139745,0.100052,0.073821
-0.138588,0.10431,0.074325
-0.137371,0.10821,0.076374
-0.141616,0.102802,0.075787
-0.144608,0.101941,0.074617
-0.155938,0.098861,0.080534
-0.160728,0.093936,0.081065
-0.167836,0.098401,0.08048
-0.175087,0.097615,0.082275
-0.179887,0.098812,0.081708
-0.191681,0.096571,0.078724
-0.197609,0.098044,0.084081
-0.203991,0.100244,0.087761
-0.207432,0.103634,0.082696
-0.208542,0.097064,0.085852
-0.207141,0.10424,0.08636
-0.207393,0.115105,0.087089
-0.205642,0.128501,0.086945
-0.20348,0.140219,0.087803
-0.199309,0.149856,0.088385
-0.197448,0.157333,0.090113
-0.192332,0.162322,0.090072
-0.192451,0.165529,0.088453
-0.19263,0.168944,0.089445
-0.18141,0.17588,0.084107
-0.180191,0.18051,0.087187
-0.181447,0.185329,0.087001
-0.181285,0.183723,0.086821
-0.177406,0.179518,0.090922
-0.181898,0.183941,0.091258
-0.181906,0.184176,0.092153
-0.189349,0.186596,0.092757
-0.194003,0.185702,0.096292
-0.198656,0.18825,0.09984
-0.206885,0.188512,0.098746
-0.214808,0.185872,0.103127
-0.220767,0.185619,0.103039
-0.22753,0.179467,0.102518
-0.232635,0.181317,0.10337
-0.232913,0.185568,0.104595
-0.237808,0.187298,0.104185
-0.242758,0.2006,0.102363
-0.241584,0.210015,0.105087
-0.244695,0.213971,0.106397
-0.24492,0.224479,0.106192
-0.250146,0.230434,0.102284
-0.24721,0.236989,0.107615
-0.249799,0.236981,0.108673
-0.253277,0.246411,0.109742
-0.254351,0.256898,0.109694
-0.254145,0.263841,0.108328
-0.257026,0.269916,0.10917
-0.258173,0.263346,0.111137
-0.258425,0.257299,0.110029
-0.252481,0.250383,0.106784
-0.245719,0.238306,0.10097
-0.241436,0.228012,0.108371
-0.237307,0.222222,0.10707
-0.239486,0.211207,0.107195
-0.238718,0.197359,0.10872
-0.243115,0.181971,0.113408
-0.248155,0.158563,0.112488
-0.251487,0.134117,0.115032
-0.255731,0.115239,0.118009
-0.256258,0.103854,0.116055
-0.253697,0.099716,0.121576
-0.248158,0.098104,0.120699
-0.239925,0.10554,0.121117
-0.23357,0.11126,0.122043
-0.23229,0.118331,0.120843
-0.227308,0.138784,0.120176
-0.218546,0.147256,0.117543
-0.209533,0.162233,0.113546
-0.206116,0.180107,0.108112
-0.203371,0.186083,0.107845
-0.204788,0.189774,0.107285
-0.198828,0.186893,0.105745
-0.201619,0.1854,0.109375
-0.206776,0.183187,0.108125
-0.218207,0.179457,0.102782
-0.21276,0.18198,0.116254
-0.224346,0.167931,0.124536
-0.244434,0.164712,0.123326
-0.250621,0.151881,0.134746
-0.247295,0.133274,0.137975
-0.244916,0.120281,0.140581
-0.247932,0.099849,0.150857
-0.239602,0.09464,0.150188
-0.233118,0.089221,0.149902
-0.223155,0.095057,0.158206
-0.209779,0.106906,0.16054
-0.200351,0.109737,0.163121
-0.189963,0.116218,0.168192
-0.177793,0.123965,0.171281
-0.162973,0.127701,0.172915
-0.149429,0.130218,0.173151
-0.13455,0.129878,0.175477
-0.12012,0.138042,0.174873
-0.104879,0.141343,0.171154
-0.097761,0.14846,0.1704
-0.091834,0.145908,0.170698
-0.087437,0.142144,0.17268
-0.08025,0.123378,0.169946
-0.079207,0.113604,0.170726
-0.081682,0.099622,0.171273
-0.085881,0.079156,0.170166
-0.091515,0.064809,0.173081
-0.094712,0.051524,0.171969
-0.099343,0.041277,0.171938
-0.098094,0.038021,0.172683
-0.102891,0.033706,0.172307
-0.105011,0.033911,0.170446
-0.101364,0.032444,0.165243
-0.097333,0.029274,0.159989
-0.094464,0.03703,0.157698
-0.091055,0.046476,0.156438
-0.0817,0.059823,0.146004
-0.075018,0.066683,0.143231
-0.067705,0.080379,0.136773
-0.058509,0.086505,0.131135
-0.052853,0.088943,0.124762
-0.043462,0.086544,0.118782
-0.033133,0.076868,0.114737
-0.021736,0.062738,0.103449
-0.013143,0.046992,0.099439
0.00241,0.038587,0.093266
0.006445,0.028776,0.091856
0.015245,0.028884,0.087622
0.023656,0.034053,0.08382
0.025558,0.036859,0.082713
0.030451,0.048331,0.083878
0.028639,0.053965,0.086705
0.023686,0.060586,0.086381
0.025093,0.062997,0.089309
0.026809,0.066196,0.088441
0.025933,0.061952,0.093614
0.023704,0.05895,0.093456
0.021102,0.05871,0.092442
0.01793,0.059337,0.092954
0.019396,0.059038,0.094702
0.020184,0.055736,0.093932
0.017864,0.058312,0.09281
0.017148,0.064861,0.092816
0.014911,0.070763,0.093197
0.020114,0.066217,0.089928
0.020357,0.066913,0.086803
0.018888,0.068647,0.090406
0.017751,0.067747,0.089205
0.024518,0.070881,0.085539
0.027049,0.071325,0.085422
0.029439,0.075371,0.0803
0.032381,0.085985,0.08051
0.035398,0.088296,0.076579
0.04246,0.100692,0.077992
0.048455,0.106863,0.07622
0.057066,0.115594,0.077721
0.071799,0.124457,0.074906
0.080272,0.12463,0.069862
0.097638,0.12661,0.069831
0.113522,0.128091,0.067899
0.134682,0.126313,0.065979
0.160309,0.124554,0.067586
0.188752,0.117669,0.065441
0.211408,0.099695,0.061453
0.239233,0.085909,0.060902
0.251762,0.074682,0.065289
0.261157,0.058275,0.065916
0.278423,0.050793,0.071169
0.291338,0.05131,0.078876
0.309371,0.059063,0.078454
0.327414,0.06322,0.082641
0.336362,0.056151,0.087523
0.35027,0.046373,0.092889
0.368697,0.032706,0.092132
0.380429,0.024077,0.092524
0.386407,0.005876,0.095443
0.384318,-0.005634,0.095221
0.38454,-0.018129,0.098292
0.38471,-0.031634,0.101129
0.389727,-0.040077,0.098974
0.383718,-0.053065,0.099839
0.365929,-0.063853,0.103433
0.353343,-0.08309,0.110071
0.344536,-0.099382,0.106139
0.336283,-0.116736,0.104465
0.32846,-0.134428,0.103111
0.315393,-0.148161,0.100479
0.304865,-0.152014,0.103303
0.293975,-0.154507,0.099429
0.290202,-0.150497,0.096611
0.281682,-0.145124,0.095039
0.278827,-0.136924,0.09057
0.275817,-0.12949,0.087868
0.271993,-0.118361,0.079832
0.268399,-0.117786,0.073937
0.264695,-0.116988,0.072225
0.263438,-0.114442,0.062092
0.261966,-0.107014,0.050832
0.259119,-0.096466,0.04506
0.254942,-0.087397,0.035036
0.250932,-0.073457,0.027073
0.251893,-0.05828,0.021058
0.249381,-0.04414,0.012899
0.244648,-0.032912,-0.000317
0.245041,-0.032188,-0.008512
0.234608,-0.028707,-0.013635
0.232565,-0.036101,-0.022042
0.222815,-0.043702,-0.027803
0.215768,-0.048158,-0.034465
0.203825,-0.054507,-0.039136
0.191454,-0.060999,-0.046322
0.173038,-0.063024,-0.053096
0.163526,-0.069378,-0.051299
0.152249,-0.071043,-0.050926
0.144947,-0.070155,-0.052726
0.140778,-0.069527,-0.054707
0.128943,-0.065905,-0.056036
0.125001,-0.05516,-0.056665
0.123846,-0.04712,-0.050302
0.116716,-0.04404,-0.053422
0.108143,-0.044318,-0.048292
0.099946,-0.042121,-0.045191
0.091662,-0.041746,-0.047012
0.077388,-0.041047,-0.040363
0.066491,-0.038259,-0.043979
0.055512,-0.042744,-0.038369
0.044965,-0.038415,-0.039427
0.037628,-0.027816,-0.038792
0.025768,-0.019665,-0.036716
0.018889,-0.007355,-0.038457
0.003581,0.002413,-0.037184
-0.003865,0.008195,-0.039488
-0.015861,0.01908,-0.037889
-0.016129,0.032901,-0.038153
-0.016375,0.041316,-0.043337
-0.016128,0.047094,-0.044961
-0.016293,0.062007,-0.050303
-0.014488,0.070559,-0.051239
-0.008363,0.079856,-0.055158
-0.009322,0.084374,-0.058518
-0.007205,0.100233,-0.065896
-0.006934,0.102622,-0.065306
-0.006962,0.101166,-0.065848
-0.007235,0.093634,-0.065486
-0.009239,0.099438,-0.065993
-0.009666,0.101005,-0.069766
-0.007236,0.099779,-0.065637
-0.010262,0.105562,-0.063959
-0.012772,0.10649,-0.064535
-0.012186,0.109156,-0.059144
-0.013356,0.106508,-0.058442
-0.021444,0.102415,-0.057031
-0.029638,0.097015,-0.058705
-0.040038,0.08885,-0.054213
-0.040683,0.085417,-0.052457
-0.047362,0.076231,-0.052795
-0.055742,0.076029,-0.051917
-0.064862,0.077473,-0.050363
-0.067146,0.070149,-0.054097
-0.074784,0.065535,-0.0499
-0.085215,0.060295,-0.050811
-0.096585,0.051216,-0.057629
-0.108373,0.04969,-0.058676
-0.114699,0.04897,-0.059876
-0.123531,0.047224,-0.064607
-0.126468,0.05286,-0.068937
-0.130203,0.052854,-0.073712
-0.139816,0.060933,-0.085795
-0.141187,0.06657,-0.087918
-0.145191,0.063708,-0.08979
-0.150254,0.066993,-0.097303
-0.152346,0.075454,-0.101188
-0.152259,0.078283,-0.108549
-0.155212,0.080519,-0.111993
-0.157598,0.085238,-0.116469
-0.160587,0.093416,-0.121166
-0.160189,0.099253,-0.125732
-0.154586,0.104194,-0.134557
-0.154981,0.111494,-0.135542
-0.155278,0.119068,-0.140688
-0.157383,0.119508,-0.143336
-0.154917,0.128353,-0.144841
-0.157072,0.130212,-0.147356
-0.158502,0.134074,-0.153789
-0.154638,0.136607,-0.158203
-0.155136,0.137533,-0.162812
-0.152998,0.13695,-0.164433
-0.152667,0.138044,-0.169586
-0.153224,0.136151,-0.176667
-0.154912,0.133597,-0.178845
-0.161605,0.13347,-0.182854
-0.167799,0.128552,-0.189343
-0.177093,0.12478,-0.195719
-0.17885,0.123427,-0.201114
-0.182503,0.129674,-0.203301
-0.188099,0.131277,-0.208682
-0.200628,0.133132,-0.217381
-0.21455,0.130271,-0.217536
-0.223976,0.121345,-0.21995
-0.237285,0.108372,-0.228645
-0.254028,0.098989,-0.236841
-0.270674,0.089534,-0.241955
-0.286712,0.077707,-0.247929
-0.297272,0.066163,-0.255007
-0.317735,0.056418,-0.261547
-0.335486,0.050487,-0.267299
-0.34999,0.048725,-0.276236
-0.356467,0.05131,-0.279135
-0.365438,0.057421,-0.284444
-0.371108,0.073037,-0.290093
-0.382817,0.086791,-0.294648
-0.380087,0.093422,-0.298719
-0.384459,0.102559,-0.307257
-0.385253,0.112497,-0.3124
-0.388345,0.122651,-0.323401
-0.387795,0.136291,-0.324635
-0.377537,0.148108,-0.330222
-0.367528,0.164741,-0.339432
-0.345986,0.178231,-0.347297
-0.324927,0.195199,-0.353208
-0.305355,0.218485,-0.358936
-0.28234,0.229926,-0.359699
-0.264189,0.246555,-0.366214
-0.239916,0.249713,-0.370576
-0.216241,0.259886,-0.376387
-0.190495,0.266438,-0.383383
-0.166772,0.27106,-0.388739
-0.145884,0.271922,-0.395505
-0.129864,0.270843,-0.39767
-0.108826,0.273246,-0.397573
-0.092466,0.279362,-0.40521
-0.091466,0.283534,-0.405245
-0.088474,0.281363,-0.404236
-0.084636,0.273303,-0.405484
-0.075251,0.257216,-0.409918
-0.066949,0.244226,-0.408375
-0.070395,0.227527,-0.405762
-0.070085,0.207437,-0.405648
-0.071575,0.189356,-0.401776
-0.070208,0.162736,-0.400408
-0.063784,0.143025,-0.405931
-0.061657,0.116799,-0.401746
-0.059611,0.10465,-0.39665
-0.053993,0.091635,-0.396161
-0.051199,0.076257,-0.395642
-0.046314,0.057789,-0.391431
-0.040661,0.045126,-0.390939
-0.038154,0.038344,-0.386448
-0.03227,0.031575,-0.384921
-0.027646,0.026176,-0.385255
-0.023013,0.016593,-0.381616
-0.019848,0.016312,-0.379509
-0.016822,0.0106,-0.376596
-0.016482,0.005481,-0.376989
-0.019406,0.007168,-0.377479
-0.020865,0.006742,-0.374313
-0.021979,0.010896,-0.38088
-0.024635,0.013477,-0.381199
-0.030954,0.013778,-0.381164
-0.037716,0.012984,-0.385472
-0.04333,0.013833,-0.384572
-0.044189,0.008,-0.389746
-0.045225,0.011014,-0.391497
-0.04698,0.00977,-0.394529
-0.047322,0.011364,-0.39255
-0.036852,0.014087,-0.399128
-0.03607,0.018611,-0.40209
-0.020476,0.020679,-0.403531
-0.017947,0.02026,-0.409678
-0.008368,0.018234,-0.413114
-0.002089,0.01834,-0.413381
0.006253,0.016756,-0.414567
0.017247,0.009272,-0.414865
0.025799,0.011703,-0.418088
0.034869,0.010992,-0.420479
0.047814,0.002647,-0.422639
0.059385,-0.00039,-0.419797
0.071523,-0.002247,-0.421286
0.094721,-0.004673,-0.420883
0.112849,-0.005001,-0.422445
0.129475,-0.005801,-0.419983
0.151845,-0.008033,-0.421101
0.175018,-0.004317,-0.422303
0.193837,0.004036,-0.426306
0.215691,0.003251,-0.42358
0.231617,0.011232,-0.425889
0.246172,0.006916,-0.431736
0.263368,-0.003961,-0.432551
0.276613,-0.016087,-0.434449
0.286906,-0.023912,-0.434537
0.289465,-0.033225,-0.434873
0.29878,-0.044888,-0.437249
0.299058,-0.051951,-0.436732
0.298645,-0.06077,-0.435716
0.292247,-0.070478,-0.438653
0.289027,-0.084868,-0.435199
0.278648,-0.099756,-0.435148
0.271066,-0.11124,-0.433821
0.254462,-0.121701,-0.432396
0.239825,-0.12262,-0.43218
0.226446,-0.128026,-0.426994
0.210846,-0.133108,-0.422908
0.194386,-0.132123,-0.420994
0.174252,-0.140418,-0.414605
0.153386,-0.141853,-0.409611
0.141593,-0.143124,-0.404772
0.128765,-0.144547,-0.401963
0.117069,-0.151891,-0.39769
0.109517,-0.152572,-0.394529
0.098742,-0.159425,-0.385936
0.094824,-0.157201,-0.378583
0.098292,-0.155897,-0.372827
0.104108,-0.151978,-0.367664
0.113621,-0.14827,-0.356741
0.120591,-0.140537,-0.357723
0.125905,-0.136533,-0.347132
0.138203,-0.136352,-0.341663
0.141204,-0.139678,-0.331168
0.145843,-0.137085,-0.327697
0.154348,-0.137401,-0.317371
0.162216,-0.132409,-0.313282
0.157797,-0.13745,-0.308366
0.159542,-0.1352,-0.303426
0.158846,-0.130472,-0.295094
0.158074,-0.11417,-0.289249
0.161722,-0.113587,-0.281495
0.163206,-0.101873,-0.275925
0.163382,-0.095566,-0.270309
0.160263,-0.090051,-0.267768
0.156026,-0.085866,-0.263131
0.149051,-0.081912,-0.261842
0.148185,-0.068308,-0.256622
0.15066,-0.057217,-0.255489
0.147801,-0.052164,-0.251369
0.138152,-0.043404,-0.252093
0.136619,-0.034215,-0.247389
0.129322,-0.025596,-0.249133
0.12893,-0.016135,-0.248604
0.117416,-0.008662,-0.249688
0.109053,-0.00024,-0.249578
0.106221,0.007359,-0.250967
0.095923,0.015122,-0.246507
0.092455,0.022433,-0.24807
0.073668,0.034042,-0.248641
0.057674,0.038446,-0.24033
0.035509,0.034597,-0.242665
0.018219,0.031891,-0.239161
0.00615,0.030307,-0.235906
-0.013936,0.032442,-0.229396
-0.034352,0.032469,-0.226027
-0.052066,0.033998,-0.220177
-0.066029,0.031877,-0.214314
-0.07918,0.038276,-0.209004
-0.091665,0.041499,-0.203222
-0.100811,0.043672,-0.196034
-0.111775,0.04471,-0.194521
-0.111875,0.0398,-0.193124
-0.120814,0.04208,-0.190999
-0.123861,0.039373,-0.185958
-0.127049,0.03907,-0.185122
-0.12784,0.034729,-0.183031
-0.127772,0.030629,-0.17831
-0.131884,0.025847,-0.178711
-0.12106,0.022856,-0.176528
-0.120744,0.015672,-0.176805
-0.118779,0.009779,-0.174077
-0.11079,0.008268,-0.174631
-0.105511,0.007232,-0.17142
-0.097418,0.003982,-0.167842
-0.091691,-0.000863,-0.169283
-0.085084,-0.00703,-0.168468
-0.082587,-0.010201,-0.166973
-0.073674,-0.014243,-0.163496
-0.064121,-0.014493,-0.167546
-0.060333,-0.016665,-0.163282
-0.050557,-0.019848,-0.158389
-0.04358,-0.011423,-0.157851
-0.040631,-0.019936,-0.154616
-0.034824,-0.026959,-0.153415
-0.030382,-0.0375,-0.149544
-0.03121,-0.044763,-0.145274
-0.031297,-0.045,-0.140737
-0.038686,-0.044623,-0.136264
-0.040306,-0.040028,-0.130275
-0.043344,-0.029169,-0.124069
-0.044678,-0.019737,-0.122376
-0.050087,-0.017534,-0.118963
-0.052498,-0.016131,-0.111645
-0.063671,-0.01961,-0.104035
-0.070044,-0.026202,-0.101341
-0.084244,-0.02608,-0.099747
-0.096563,-0.029352,-0.087701
-0.111842,-0.036474,-0.085658
-0.122824,-0.045182,-0.080366
-0.135721,-0.05627,-0.073017
-0.151272,-0.061674,-0.068694
-0.164083,-0.071126,-0.06772
-0.180329,-0.084056,-0.060374
-0.193836,-0.091557,-0.061963
-0.200112,-0.103037,-0.059387
-0.221002,-0.110745,-0.070477
-0.222187,-0.106154,-0.067447
-0.231047,-0.102672,-0.048365
-0.237368,-0.100409,-0.036711
-0.245471,-0.106204,-0.027214
-0.244112,-0.111826,-0.025976
-0.239763,-0.115594,-0.022796
-0.239185,-0.113633,-0.015405
-0.233649,-0.104715,-0.012848
-0.228457,-0.096805,-0.013018
-0.222372,-0.08027,-0.009194
-0.214534,-0.061239,-0.004594
-0.20698,-0.046156,-0.001931
-0.20131,-0.035365,-0.001939
-0.198075,-0.024796,0.001637
-0.191228,-0.016983,0.005845
-0.190994,-0.011571,0.00534
-0.181511,-0.004071,0.00611
-0.181118,-0.005119,0.005028
-0.186709,-0.004528,0.006648
-0.184657,-0.003755,0.009743
-0.187431,-0.00094,0.006465
-0.18726,-0.003053,0.004814
-0.188829,-0.001124,0.006678
-0.192861,-0.00792,0.002096
-0.187017,-0.009266,0.003105
-0.184402,-0.005187,0.001151
-0.186932,-0.002682,0.00127
-0.18609,-0.005306,-0.005417
-0.188854,-0.003316,-0.006004
-0.184853,0.000798,-0.010598
-0.180976,0.009095,-0.012179
-0.179684,0.004926,-0.014234
-0.179173,0.013518,-0.01916
-0.173445,0.024126,-0.023511
-0.172809,0.036871,-0.032078
-0.174497,0.039557,-0.035389
-0.163582,0.04084,-0.036344
-0.150655,0.054223,-0.04961
-0.145774,0.069658,-0.058179
-0.140007,0.085022,-0.061107
-0.13375,0.091667,-0.062601
-0.119905,0.100365,-0.066014
-0.108369,0.099368,-0.073801
-0.101139,0.091996,-0.079179
-0.093663,0.080546,-0.084342
-0.081076,0.077192,-0.086506
-0.071581,0.073849,-0.08819
-0.058943,0.068272,-0.092013
-0.049363,0.063509,-0.097495
-0.046311,0.059962,-0.101534
-0.036968,0.061706,-0.09989
-0.032358,0.057573,-0.099121
-0.028197,0.057749,-0.100717
-0.022483,0.052462,-0.102887
-0.020038,0.045451,-0.096631
-0.017972,0.039447,-0.101037
-0.02581,0.031774,-0.101461
-0.027208,0.02166,-0.104642
-0.02939,0.012942,-0.106588
-0.030078,0.004085,-0.105973
-0.026524,-0.001504,-0.11283
-0.029205,-0.019652,-0.116643
-0.030465,-0.034696,-0.121927
-0.034502,-0.046024,-0.125514
-0.038172,-0.066023,-0.128832
-0.035684,-0.080243,-0.130531
-0.030407,-0.089674,-0.132363
-0.027058,-0.087807,-0.131065
-0.018744,-0.089164,-0.128174
-0.005676,-0.074324,-0.137088
0.006478,-0.065175,-0.13601
0.019636,-0.058568,-0.137866
0.035971,-0.047858,-0.135893
0.049179,-0.050789,-0.133458
0.062861,-0.04479,-0.135215
0.069263,-0.042839,-0.132652
0.0805,-0.040524,-0.127186
0.092462,-0.034189,-0.125705
0.102789,-0.03397,-0.118788
0.112598,-0.029166,-0.119235
0.116981,-0.027017,-0.116834
0.123995,-0.024946,-0.109179
0.13073,-0.017883,-0.108857
0.13443,-0.015114,-0.103937
0.141414,-0.008258,-0.100429
0.147422,-0.000948,-0.100802
0.149459,0.004483,-0.100711
0.15493,0.013638,-0.096573
0.159246,0.023147,-0.094745
0.164077,0.034209,-0.093468
0.170086,0.045537,-0.093846
0.174411,0.056327,-0.092711
0.187536,0.067135,-0.094014
0.185316,0.076557,-0.092603
0.195838,0.084973,-0.091046
0.198414,0.089254,-0.092922
0.203642,0.08673,-0.106208
0.209361,0.090147,-0.099616
0.203621,0.087283,-0.080103
0.197517,0.085413,-0.073589
0.197131,0.081145,-0.062351
0.199074,0.068025,-0.057901
0.193197,0.065354,-0.051349
0.193901,0.062517,-0.042951
0.189615,0.067575,-0.03192
0.191859,0.07766,-0.025603
0.18427,0.082494,-0.014301
0.179999,0.085194,-0.009696
0.173721,0.075927,-0.008722
0.171009,0.064971,-0.003293
0.165207,0.054587,0.001509
0.160978,0.04426,0.008606
0.159619,0.043667,0.023166
0.158457,0.042302,0.03935
0.156669,0.048237,0.056764
0.15012,0.054356,0.069938
0.148568,0.058047,0.080407
0.151797,0.067542,0.08925
0.161555,0.07614,0.10391
0.163069,0.08008,0.107601
0.17025,0.091793,0.113674
0.180077,0.098953,0.123911
0.189085,0.104443,0.130438
0.205014,0.098296,0.139847
0.212529,0.095955,0.145396
0.224395,0.092815,0.153755
0.24042,0.08086,0.15392
0.253379,0.0793,0.158101
0.264878,0.073145,0.159537
0.269377,0.071355,0.162832
0.282798,0.072414,0.163116
0.289539,0.063869,0.166196
0.2952,0.058459,0.163028
0.304089,0.048717,0.166363
0.31173,0.035857,0.168724
0.319956,0.031204,0.164867
0.324281,0.025391,0.165107
0.326226,0.020263,0.167076
0.326581,0.016934,0.165019
0.327448,0.016402,0.163914
0.334149,0.013206,0.16936
0.327309,0.018256,0.172693
0.325806,0.025155,0.169837
0.317306,0.032905,0.171552
0.30186,0.042171,0.170972
0.289349,0.039572,0.172149
0.27606,0.032552,0.171038
0.261935,0.0307,0.168819
0.246628,0.027598,0.165994
0.225524,0.025364,0.16732
0.208554,0.024697,0.168119
0.187636,0.031533,0.166022
0.174729,0.038596,0.163729
0.161318,0.045175,0.164125
0.138544,0.048978,0.161802
0.12194,0.060589,0.157303
0.101819,0.069938,0.159485
0.087657,0.073441,0.15856
0.073417,0.075347,0.14929
0.061155,0.075399,0.145619
0.046205,0.072371,0.140443
0.033889,0.074493,0.137878
0.027271,0.075386,0.132998
0.020672,0.072615,0.1298
0.018119,0.077432,0.122205
0.012589,0.08131,0.118767
0.010059,0.083623,0.112917
0.010552,0.092909,0.108992
0.009657,0.096618,0.104342
0.00452,0.102576,0.099611
0.004429,0.106252,0.097807
0.007569,0.108928,0.091312
0.01237,0.114851,0.091157
0.003976,0.124902,0.086307
0.005239,0.130375,0.082249
0.003631,0.140276,0.084659
0.005429,0.14975,0.078919
0.00179,0.159521,0.07726
-0.004064,0.166617,0.074642
-0.00976,0.167199,0.073939
-0.015283,0.17199,0.068267
-0.024317,0.182871,0.067066
-0.038448,0.179457,0.065667
-0.049831,0.185221,0.064001
-0.067075,0.1898,0.061087
-0.078446,0.193474,0.063052
-0.098878,0.19417,0.060228
-0.11636,0.192796,0.060486
-0.126612,0.197931,0.057394
-0.136012,0.200038,0.059072
-0.153071,0.192937,0.053949
-0.164129,0.194746,0.055946
