Acc_X,Acc_Y,Acc_Z
0.173723,-0.166306,9.874084
0.159665,-0.144963,9.871677
0.183107,-0.111169,9.856822
0.181187,-0.169036,9.860877
0.194794,-0.126625,9.883479
0.214412,-0.118662,9.891608
0.186024,-0.087619,9.894658
0.221339,-0.094089,9.876302
0.22953,-0.1179,9.907871
0.195776,-0.105107,9.926753
0.171098,-0.096558,9.910565
0.126555,-0.02728,9.937622
0.133582,-0.061067,9.905008
0.124401,-0.088561,9.868531
0.082162,-0.049002,9.875515
0.081715,-0.067895,9.88181
0.026701,-0.044555,9.878065
0.038704,-0.092677,9.860425
0.028723,-0.098072,9.846382
-4.2e-05,-0.056539,9.834077
-0.009236,-0.087472,9.814956
-0.020524,-0.117611,9.759286
0.073991,-0.181873,9.805877
-0.079519,-0.138826,9.897042
0.001688,-0.124709,9.673717
0.139263,-0.237877,9.725868
0.03109,-0.162565,9.854298
0.055502,-0.162334,9.782392
0.02431,-0.121363,9.758166
0.111774,-0.120462,9.757809
0.15585,-0.289617,9.703453
0.074698,-0.237434,9.766418
0.092369,-0.173468,9.756285
0.058844,-0.185827,9.708932
0.091016,-0.196469,9.703639
0.088329,-0.189904,9.663061
0.09085,-0.169319,9.673528
0.096312,-0.177633,9.747199
0.076686,-0.196531,9.764268
0.086542,-0.207804,9.752895
0.116529,-0.183754,9.786084
0.106846,-0.159335,9.763338
0.114751,-0.188622,9.771682
0.121695,-0.185023,9.799601
0.110829,-0.191793,9.781695
0.115346,-0.228286,9.776187
0.120619,-0.149006,9.756019
0.11298,-0.17164,9.710123
0.135747,-0.183093,9.693315
0.122815,-0.148406,9.708097
0.079088,-0.130649,9.700085
0.113097,-0.110326,9.66232
0.144395,-0.114774,9.673266
0.144829,-0.140231,9.702806
0.134297,-0.153063,9.71289
0.148598,-0.100169,9.761863
0.12694,-0.127052,9.74646
0.143506,-0.164359,9.762005
0.150602,-0.147465,9.778052
0.197984,-0.168159,9.791621
0.182485,-0.161627,9.809215
0.216807,-0.173763,9.835658
0.154291,-0.223542,9.872371
0.195782,-0.122166,9.849151
0.242956,-0.182738,9.790814
0.332516,-0.157781,9.950273
0.170165,-0.263017,9.97325
0.093036,-0.089788,9.944324
0.200201,-0.109935,9.84617
0.265809,-0.251799,9.899912
0.286042,-0.238532,9.988869
0.241944,-0.120509,10.015212
0.17863,-0.204649,9.975655
0.24507,-0.206756,9.925803
0.27584,-0.235491,9.861052
0.232516,-0.19353,9.856878
0.200134,-0.149241,9.845908
0.176243,-0.175527,9.81031
0.206243,-0.20534,9.773833
0.219052,-0.230273,9.752091
0.151436,-0.194853,9.774406
0.136249,-0.19374,9.765154
0.114322,-0.209575,9.740525
0.088868,-0.224402,9.708028
0.072598,-0.235102,9.719616
0.022434,-0.19855,9.718754
0.051254,-0.226635,9.725122
0.033252,-0.211932,9.768228
0.026773,-0.27935,9.734135
0.038277,-0.244562,9.813863
-0.003488,-0.229824,9.822776
0.027863,-0.275817,9.789831
0.034813,-0.263715,9.818513
0.07561,-0.252858,9.84629
0.044732,-0.281256,9.88005
0.041407,-0.240835,9.89619
0.054247,-0.243154,9.880264
0.040559,-0.29461,9.858616
0.060837,-0.290393,9.841428
0.039747,-0.254706,9.870251
0.040192,-0.278595,9.799773
0.037067,-0.29802,9.794695
0.037615,-0.294468,9.779651
-0.001782,-0.286533,9.731298
0.016238,-0.227413,9.695319
0.018646,-0.244679,9.663252
0.014833,-0.286056,9.646969
-0.007412,-0.260927,9.673338
-0.009531,-0.194181,9.672621
0.043822,-0.195673,9.658507
0.076675,-0.224219,9.674266
0.056166,-0.213701,9.681085
0.045116,-0.199113,9.70271
0.063682,-0.184614,9.690193
0.045483,-0.178635,9.686758
0.044482,-0.210723,9.659054
0.063075,-0.187553,9.693554
0.079847,-0.180729,9.71885
0.092599,-0.18056,9.737543
0.088163,-0.17302,9.752038
0.075828,-0.199671,9.765651
0.133235,-0.164198,9.738162
0.168906,-0.173729,9.822992
0.144863,-0.170609,9.869627
0.141078,-0.225002,9.847717
0.148754,-0.179632,9.884622
0.180866,-0.190016,9.868266
0.223362,-0.241946,9.866192
0.260278,-0.174999,9.930018
0.225786,-0.184086,9.90665
0.251993,-0.19191,9.877183
0.253911,-0.132473,9.900905
0.259948,-0.13838,9.800886
0.271286,-0.160367,9.786985
0.222787,-0.124379,9.789775
0.231547,-0.164831,9.758088
0.221309,-0.148541,9.76021
0.212812,-0.159609,9.785387
0.173849,-0.148628,9.790585
0.17701,-0.136921,9.758877
0.181323,-0.150009,9.770271
0.173553,-0.16282,9.765669
0.191038,-0.239501,9.775326
0.16313,-0.214674,9.829662
0.160326,-0.226444,9.771917
0.187006,-0.25317,9.768818
0.186725,-0.248486,9.779546
0.18549,-0.273114,9.786389
0.193261,-0.251622,9.800432
0.214541,-0.28277,9.789702
0.230626,-0.301741,9.808538
0.225254,-0.330272,9.816525
0.246875,-0.319367,9.826227
0.244324,-0.304138,9.824584
0.266314,-0.363404,9.829805
0.263119,-0.330327,9.843919
0.254312,-0.352196,9.840317
0.280331,-0.307439,9.80608
0.244099,-0.307376,9.8113
0.274033,-0.349068,9.768337
0.279548,-0.330893,9.824868
0.249195,-0.331161,9.828419
0.203061,-0.297022,9.791061
0.209759,-0.274799,9.770864
0.185059,-0.33529,9.72876
0.173535,-0.304196,9.736295
0.160947,-0.290627,9.776754
0.122186,-0.282685,9.768887
0.098755,-0.334022,9.758922
0.058552,-0.34117,9.765219
0.041705,-0.276024,9.713029
0.108882,-0.352183,9.683247
0.004477,-0.335453,9.815621
0.031117,-0.330885,9.708975
0.0846,-0.338146,9.734915
0.047789,-0.311532,9.778713
0.103705,-0.318158,9.75351
0.079692,-0.339868,9.781668
0.097303,-0.320706,9.795019
0.123528,-0.370642,9.772535
0.095777,-0.379731,9.752869
0.118042,-0.354104,9.732219
0.124958,-0.40423,9.704348
0.164938,-0.416433,9.715314
0.169296,-0.400166,9.706971
0.155721,-0.427762,9.675333
0.185033,-0.430577,9.693452
0.19209,-0.421847,9.689829
0.181282,-0.433261,9.642644
0.254727,-0.426562,9.653325
0.267362,-0.4179,9.708065
0.243114,-0.458591,9.719821
0.235761,-0.405399,9.722564
0.225682,-0.410262,9.703679
0.205682,-0.422602,9.710998
0.20441,-0.413313,9.721681
0.18792,-0.39856,9.743664
0.173977,-0.37585,9.771343
0.183032,-0.411908,9.801598
0.109464,-0.382025,9.852981
0.09524,-0.368043,9.83319
0.105504,-0.36271,9.8783
0.09344,-0.336225,9.885667
0.082838,-0.385098,9.863782
0.037991,-0.354733,9.912253
0.073781,-0.358411,9.885741
0.086781,-0.37613,9.862876
0.122181,-0.351187,9.863784
0.086865,-0.391682,9.860114
0.104436,-0.370728,9.846476
0.14854,-0.376329,9.833767
0.161602,-0.363029,9.818533
0.218935,-0.403834,9.786395
0.267792,-0.405221,9.78799
0.250701,-0.3952,9.790068
0.305639,-0.426565,9.763628
0.298691,-0.406421,9.776407
0.336661,-0.442008,9.736283
0.341707,-0.480356,9.738599
0.337451,-0.419472,9.775387
0.383085,-0.487901,9.758008
0.387942,-0.47154,9.773815
0.412419,-0.488565,9.778345
0.402867,-0.517704,9.761683
0.442017,-0.532745,9.715833
0.461846,-0.47828,9.752786
0.444831,-0.547093,9.753293
0.391831,-0.517778,9.778493
0.294559,-0.445209,9.763802
0.340116,-0.458013,9.671626
0.382036,-0.548521,9.694783
0.349077,-0.47765,9.814541
0.280263,-0.488298,9.781613
0.255229,-0.447743,9.769953
0.202422,-0.489813,9.726342
0.212052,-0.550056,9.637247
0.281557,-0.475957,9.737884
0.222538,-0.493747,9.764591
0.13848,-0.429004,9.736929
0.150336,-0.439657,9.614475
0.251818,-0.511615,9.582172
0.261493,-0.460778,9.637079
0.310108,-0.478741,9.684813
0.219491,-0.382331,9.735808
0.262079,-0.447628,9.621606
0.272242,-0.401792,9.663163
0.25467,-0.430221,9.622176
0.280228,-0.358863,9.652291
0.257599,-0.390747,9.697063
0.216538,-0.416359,9.721741
0.245577,-0.445913,9.697829
0.232876,-0.378086,9.738333
0.198868,-0.385798,9.73602
0.204526,-0.442752,9.724887
0.193901,-0.448696,9.792028
0.125735,-0.41529,9.82116
0.097196,-0.421583,9.798464
0.076287,-0.44468,9.813082
0.077373,-0.449412,9.814175
0.082409,-0.465719,9.812864
0.03341,-0.422174,9.881577
0.006581,-0.435078,9.84591
0.018597,-0.467557,9.841165
-0.013487,-0.457753,9.818371
-0.036833,-0.466078,9.794601
-0.027372,-0.44025,9.813221
-0.040143,-0.429784,9.822302
-0.073698,-0.436504,9.769161
-0.036236,-0.41226,9.730581
-0.009039,-0.403269,9.76422
-0.008276,-0.400881,9.772349
-0.005872,-0.420651,9.761049
0.008449,-0.390151,9.76212
0.028897,-0.389665,9.761952
0.071366,-0.418035,9.775324
0.065735,-0.387698,9.800286
0.079666,-0.431204,9.783429
0.102843,-0.412191,9.846179
0.095294,-0.401768,9.82713
0.094555,-0.402953,9.800071
0.128402,-0.443171,9.806122
0.121957,-0.437065,9.785522
0.129011,-0.444408,9.780708
0.146845,-0.4429,9.785188
0.1305,-0.447424,9.777081
0.086543,-0.429436,9.741869
0.093349,-0.440271,9.748354
0.072849,-0.410924,9.73357
0.052032,-0.43192,9.708322
0.01891,-0.416225,9.753195
-0.005797,-0.39887,9.734503
-0.003969,-0.396484,9.704462
-0.03053,-0.394091,9.708588
-0.0536,-0.40155,9.696142
-0.064728,-0.390556,9.682077
-0.065927,-0.332737,9.665674
-0.043234,-0.327072,9.62495
-0.018628,-0.326401,9.637467
-0.010259,-0.315384,9.634413
0.008186,-0.255389,9.613767
0.027681,-0.260457,9.560883
0.033894,-0.28171,9.571991
0.040143,-0.261051,9.563383
0.080456,-0.270228,9.526784
0.075909,-0.210978,9.555563
0.098155,-0.219907,9.498245
0.125013,-0.279346,9.495475
0.094353,-0.214094,9.523446
0.09683,-0.241751,9.474066
0.111217,-0.19874,9.497624
0.125153,-0.237588,9.47659
0.089901,-0.224453,9.494998
0.131573,-0.220065,9.503294
0.098525,-0.224659,9.494423
0.144632,-0.213488,9.496973
0.141948,-0.236508,9.515687
0.122357,-0.20758,9.530782
0.118956,-0.19706,9.508776
0.169476,-0.21901,9.517211
0.130508,-0.194614,9.510587
0.15856,-0.222881,9.482831
0.125924,-0.178004,9.529638
0.061901,-0.173695,9.528924
0.047859,-0.201967,9.481428
-0.006787,-0.197077,9.537032
-0.063619,-0.188096,9.524708
-0.08443,-0.144812,9.524977
-0.105599,-0.162614,9.512697
-0.131251,-0.15448,9.536732
-0.199543,-0.145521,9.53402
-0.203006,-0.12394,9.538337
-0.238427,-0.106398,9.534718
-0.235076,-0.133504,9.526465
-0.256902,-0.132544,9.551311
-0.307254,-0.135561,9.541587
-0.304304,-0.109591,9.582767
-0.345936,-0.10561,9.560003
-0.354009,-0.143255,9.523402
-0.389883,-0.149456,9.573951
-0.382605,-0.115627,9.602566
-0.398369,-0.150828,9.611956
-0.417528,-0.148716,9.613987
-0.394869,-0.2084,9.634744
-0.433564,-0.189947,9.659406
-0.40386,-0.200656,9.664076
-0.382129,-0.226887,9.679545
-0.412186,-0.228572,9.719365
-0.403636,-0.264497,9.730711
-0.406695,-0.222514,9.778332
-0.436481,-0.259832,9.742354
-0.409849,-0.347567,9.775812
-0.452579,-0.281996,9.851818
-0.472878,-0.334613,9.852528
-0.58118,-0.283519,9.829546
-0.515565,-0.358343,9.822374
-0.541966,-0.318519,9.904406
-0.592974,-0.296616,9.876405
-0.573369,-0.325696,9.915812
-0.635697,-0.28657,9.974743
-0.58232,-0.32003,9.969816
-0.564116,-0.323871,10.015974
-0.690585,-0.301107,9.982595
-0.654794,-0.318888,9.958437
-0.600289,-0.287778,9.945198
-0.585774,-0.354911,9.930046
-0.596245,-0.310069,9.967604
-0.61226,-0.291147,9.9558
-0.597459,-0.334187,9.958176
-0.614279,-0.336942,9.966977
-0.578816,-0.347018,9.969045
-0.623299,-0.33084,9.967643
-0.618118,-0.326541,10.002497
-0.649512,-0.302374,10.011132
-0.63411,-0.360366,10.000397
-0.600468,-0.340544,10.024712
-0.64274,-0.319321,10.099294
-0.648846,-0.373059,10.088278
-0.653721,-0.392351,10.122041
-0.651125,-0.355677,10.149603
-0.640957,-0.374729,10.134129
-0.669445,-0.358232,10.15652
-0.655636,-0.353977,10.164156
-0.667039,-0.419249,10.179151
-0.731727,-0.388528,10.232331
-0.759997,-0.408452,10.227925
-0.750266,-0.45363,10.231078
-0.792401,-0.483922,10.259633
-0.665075,-0.3114,10.303598
-0.866977,-0.489996,10.210698
-0.818936,-0.401971,10.202493
-0.727143,-0.415819,10.171304
-0.643232,-0.566794,10.239423
-0.828291,-0.47773,10.384184
-0.926797,-0.25455,10.231954
-0.839544,-0.307746,9.969504
-0.682359,-0.407757,9.98058
-0.731164,-0.438276,10.038928
-0.747034,-0.368818,10.025262
-0.736546,-0.318249,10.063764
-0.645973,-0.419277,10.07001
-0.62347,-0.499094,10.066491
-0.586975,-0.394869,10.035385
-0.558346,-0.393947,9.943211
-0.511132,-0.41379,9.9598
-0.487931,-0.47921,9.875
-0.437363,-0.557723,9.798529
-0.380312,-0.46121,9.827262
-0.367691,-0.452325,9.799455
-0.375716,-0.569467,9.731237
-0.356311,-0.511172,9.73719
-0.353638,-0.510958,9.70257
-0.388294,-0.539301,9.676062
-0.38861,-0.525488,9.676034
-0.362087,-0.603577,9.68684
-0.433507,-0.623045,9.688276
-0.477346,-0.605879,9.652399
-0.497113,-0.565386,9.651748
-0.475578,-0.606049,9.608449
-0.546867,-0.621114,9.591316
-0.60512,-0.632765,9.558163
-0.57816,-0.59634,9.554814
-0.638429,-0.622719,9.578206
-0.718954,-0.640941,9.535404
-0.681749,-0.596789,9.532631
-0.703999,-0.540292,9.538967
-0.700866,-0.606897,9.515608
-0.692944,-0.626154,9.525931
-0.730986,-0.607997,9.52672
-0.748604,-0.581749,9.479656
-0.742802,-0.589316,9.472763
-0.753557,-0.595058,9.475432
-0.763796,-0.609037,9.455646
-0.738842,-0.584523,9.478934
-0.749026,-0.533036,9.457944
-0.758616,-0.541155,9.428902
-0.782772,-0.543606,9.461835
-0.724805,-0.498556,9.461678
-0.699199,-0.555442,9.439167
-0.712467,-0.514369,9.538936
-0.703865,-0.562651,9.545515
-0.718431,-0.556883,9.561707
-0.746687,-0.513708,9.567137
-0.759502,-0.534795,9.539625
-0.719158,-0.560911,9.553426
-0.695259,-0.580202,9.587183
-0.754779,-0.560087,9.61487
-0.761915,-0.542099,9.619993
-0.755442,-0.551468,9.623022
-0.754544,-0.578709,9.633867
-0.751839,-0.575916,9.697907
-0.750259,-0.540939,9.768306
-0.736619,-0.531864,9.774023
-0.721615,-0.5686,9.801805
-0.685057,-0.535497,9.863212
-0.677558,-0.558818,9.855221
-0.657021,-0.519924,9.892724
-0.654542,-0.523589,9.918468
-0.616927,-0.52316,9.900633
-0.584798,-0.534286,9.915622
-0.567768,-0.507518,9.915025
-0.52677,-0.468963,9.930033
-0.543198,-0.54783,9.864828
-0.528142,-0.532094,9.937854
-0.566417,-0.492548,9.915397
-0.514831,-0.488742,9.878985
-0.514998,-0.464262,9.876121
-0.485272,-0.489375,9.819131
-0.481806,-0.487231,9.83868
-0.512054,-0.439384,9.843614
-0.545104,-0.473263,9.80983
-0.528018,-0.467215,9.802959
-0.542453,-0.471132,9.808993
-0.581405,-0.428872,9.805963
-0.589056,-0.431913,9.789533
-0.590554,-0.463664,9.794179
-0.594066,-0.475161,9.791605
-0.630759,-0.470535,9.801308
-0.654248,-0.442104,9.778013
-0.653985,-0.470467,9.747421
-0.646455,-0.457907,9.744749
-0.646758,-0.459179,9.731775
-0.65921,-0.483844,9.685407
-0.638543,-0.449988,9.696772
-0.642897,-0.478294,9.677603
-0.649854,-0.509411,9.683894
-0.669147,-0.486833,9.685825
-0.656594,-0.501088,9.680743
-0.641261,-0.500342,9.653708
-0.605973,-0.50858,9.697889
-0.600021,-0.500621,9.691998
-0.619483,-0.497495,9.703584
-0.583332,-0.475448,9.754318
-0.574013,-0.49988,9.742324
-0.598463,-0.5465,9.753221
-0.595589,-0.503746,9.799216
-0.585211,-0.493141,9.79807
-0.558991,-0.529383,9.811062
-0.548262,-0.531424,9.842059
-0.583903,-0.556394,9.86552
-0.572779,-0.51084,9.890153
-0.595456,-0.510948,9.903621
-0.590195,-0.569112,9.921099
-0.575393,-0.591255,9.94177
-0.623051,-0.543213,9.986715
-0.614117,-0.550264,10.008892
-0.599001,-0.566116,10.02744
-0.66266,-0.588925,10.069239
-0.680917,-0.604971,10.044617
-0.673226,-0.601369,10.06369
-0.697316,-0.590896,10.047573
-0.706471,-0.641725,10.0542
-0.703421,-0.669576,10.068745
-0.743989,-0.6602,10.056041
-0.754976,-0.662979,10.025787
-0.763165,-0.666084,10.042474
-0.76917,-0.723057,10.030048
-0.785432,-0.728053,10.01839
-0.760492,-0.706545,10.000264
-0.775088,-0.707089,9.981981
-0.720868,-0.756985,9.973935
-0.719523,-0.79385,9.983515
-0.737864,-0.801522,9.974218
-0.682363,-0.809765,9.957501
-0.656625,-0.841479,9.965742
-0.661133,-0.895828,9.932718
-0.647347,-0.95026,9.930529
-0.65839,-0.918574,9.912474
-0.601938,-0.935121,9.909393
-0.596586,-0.997773,9.90092
-0.63182,-1.001469,9.898109
-0.642939,-1.010576,9.87622
-0.615806,-1.000074,9.835636
-0.633557,-1.001992,9.85547
-0.636756,-1.007959,9.862335
-0.614565,-1.005724,9.816008
-0.638951,-0.981901,9.834745
-0.671173,-1.017832,9.842778
-0.611331,-1.02288,9.831979
-0.672569,-0.998091,9.865897
-0.704762,-0.981617,9.820696
-0.722001,-0.966221,9.834444
-0.732208,-0.970552,9.842366
-0.750707,-0.993075,9.811051
-0.7751,-0.971989,9.820849
-0.772841,-0.937805,9.810643
-0.791048,-0.933641,9.773854
-0.763469,-0.938448,9.763341
-0.773619,-0.927298,9.763166
-0.772416,-0.914383,9.703063
-0.787937,-0.933219,9.685223
-0.771175,-0.984431,9.734103
-0.718218,-0.977801,9.683385
-0.712037,-1.003923,9.712872
-0.715048,-0.996047,9.716784
-0.664988,-1.026081,9.689004
-0.656801,-1.089846,9.709091
-0.672041,-1.093459,9.731552
-0.647325,-1.110048,9.729148
-0.596037,-1.097103,9.715293
-0.589222,-1.140308,9.725152
-0.581838,-1.188565,9.721379
-0.581141,-1.185791,9.71635
-0.567123,-1.137131,9.73998
-0.496882,-1.149286,9.712645
-0.504803,-1.194044,9.730986
-0.520376,-1.195434,9.751631
-0.504027,-1.224,9.736388
-0.493924,-1.22475,9.772903
-0.510279,-1.248323,9.758976
-0.563155,-1.24312,9.758132
-0.598687,-1.246373,9.751303
-0.665225,-1.251883,9.756497
-0.703314,-1.286079,9.717625
-0.717732,-1.263562,9.741344
-0.771869,-1.238477,9.773739
-0.843399,-1.277307,9.804399
-0.886775,-1.290237,9.821226
-0.920824,-1.299556,9.854721
-0.938636,-1.32606,9.891545
-1.011636,-1.292794,9.948185
-1.069632,-1.297636,9.962985
-1.03198,-1.298895,9.993334
-1.072516,-1.270254,10.061667
-1.076942,-1.277069,10.091088
-1.081762,-1.258481,10.150548
-1.078826,-1.231209,10.252452
-1.065773,-1.249156,10.29531
-1.048477,-1.202947,10.356346
-0.986391,-1.145192,10.415033
-0.817972,-1.142254,10.484675
-0.881051,-1.223642,10.56505
-0.79278,-1.090592,10.799364
-0.846068,-1.067668,10.701232
-0.580751,-1.065294,10.761988
-0.749123,-0.991344,10.764448
-0.193873,-1.177467,10.941433
-0.81621,-0.902047,11.446881
-0.989711,-1.086753,10.884067
-0.175717,-0.871904,10.91396
-0.150601,-1.023743,11.287444
-0.403226,-0.847377,11.619353
-0.46989,-0.912926,11.499223
-0.288777,-0.817701,11.831472
-0.24832,-1.103513,11.864521
-0.201784,-0.98379,12.037917
-0.305379,-0.715177,12.062439
-0.200733,-0.698925,12.016637
-0.034408,-0.863785,12.156532
-0.041225,-0.939068,12.295131
-0.122439,-0.763946,12.389383
-0.066374,-0.645697,12.397857
0.04169,-0.676517,12.458059
0.107166,-0.736744,12.464058
0.119822,-0.66635,12.52506
0.156948,-0.539764,12.589355
0.218692,-0.559211,12.540813
0.356407,-0.59428,12.56809
0.373491,-0.582241,12.59912
0.381267,-0.542759,12.58079
0.416087,-0.496318,12.54731
0.48345,-0.495224,12.458809
0.463187,-0.46673,12.40233
0.534538,-0.457505,12.293588
0.532862,-0.387989,12.224193
0.548797,-0.367254,12.073441
0.546934,-0.344567,11.964653
0.562156,-0.275711,11.846594
0.587023,-0.258756,11.764434
0.54906,-0.209542,11.629408
0.558843,-0.172357,11.436759
0.59623,-0.125236,11.287211
0.621945,-0.104505,11.137765
0.589396,-0.036394,10.977392
0.61224,0.057859,10.817287
0.643656,0.089723,10.634228
0.671925,0.086604,10.408935
0.685559,0.1878,10.264212
0.649746,0.240736,10.077404
0.61437,0.309148,9.855643
0.575782,0.291606,9.67787
0.543596,0.35566,9.495567
0.495304,0.414515,9.296765
0.462857,0.454746,9.037372
0.460052,0.519285,8.86237
0.432557,0.569788,8.669763
0.378988,0.547982,8.476372
0.377418,0.608194,8.32911
0.358435,0.625543,8.163883
0.367611,0.591208,8.027898
0.430589,0.635419,7.917885
0.396514,0.749606,7.669171
0.391768,0.523907,7.638439
0.387186,0.61834,7.651255
0.311826,0.535739,7.604517
0.371736,0.548859,7.548341
0.44739,0.55667,7.485526
0.451598,0.493456,7.454936
0.458735,0.448565,7.411849
0.503147,0.391147,7.380579
0.542042,0.475247,7.355459
0.642905,0.489335,7.364136
0.716638,0.412885,7.398665
0.760326,0.353271,7.441599
0.859608,0.312736,7.526514
0.90113,0.35184,7.59678
0.985038,0.2604,7.619697
1.015595,0.192944,7.707195
1.047302,0.13273,7.758728
1.165699,0.034706,7.835691
1.263622,0.065765,7.987641
1.260397,0.038231,8.128256
1.347484,-0.125759,8.183908
1.420823,-0.109689,8.345938
1.483233,-0.104814,8.479807
1.507239,-0.211128,8.558242
1.694125,-0.280556,8.699915
1.78891,-0.259651,8.868072
1.846915,-0.313735,9.01724
1.921197,-0.418847,9.138718
1.96669,-0.424353,9.314902
2.015159,-0.490043,9.460376
2.010098,-0.495803,9.588147
2.008828,-0.520786,9.682164
2.088662,-0.571147,9.700775
2.026504,-0.556368,9.833213
1.992253,-0.597934,9.923749
1.973414,-0.621972,10.021054
1.987695,-0.621466,10.114547
1.978931,-0.619425,10.145217
1.857786,-0.598074,10.148228
1.868883,-0.612885,10.110859
1.849455,-0.510565,10.178986
1.463164,-0.653131,10.448268
1.431995,-0.891958,10.564926
1.509941,-0.771842,10.701831
1.40383,-0.793305,10.750015
1.347223,-0.864551,10.772838
1.24198,-0.901457,10.809605
1.181861,-0.920531,10.819143
1.145223,-0.842605,10.891242
1.047602,-0.980293,10.856545
0.946172,-1.037673,10.845725
0.856535,-1.008922,10.815469
0.753104,-0.926945,10.810897
0.616514,-1.053262,10.630143
0.556798,-1.044726,10.560553
0.42953,-1.036263,10.480494
0.361893,-0.98322,10.379486
0.218098,-1.008859,10.250878
0.189913,-0.94586,10.163547
0.09772,-0.953131,10.108707
0.027388,-1.005656,10.022631
-0.06255,-1.022973,10.013102
-0.167866,-0.98309,9.975591
-0.235041,-1.002031,9.921508
-0.258965,-1.034119,9.86377
-0.324127,-1.03458,9.85334
-0.371394,-1.051812,9.806768
-0.413365,-1.091812,9.731201
-0.462977,-1.11161,9.715479
-0.496746,-1.11747,9.627798
-0.488761,-1.128215,9.534077
-0.508758,-1.082235,9.492554
-0.52476,-1.111062,9.418886
-0.55113,-1.157191,9.337203
-0.604753,-1.153183,9.284046
-0.627012,-1.145588,9.189789
-0.600279,-1.185242,9.065403
-0.614439,-1.171145,9.054759
-0.635175,-1.190969,8.970454
-0.62382,-1.194467,8.925787
-0.601084,-1.182536,8.869258
-0.564926,-1.229212,8.800577
-0.561959,-1.230326,8.749497
-0.554741,-1.220768,8.665481
-0.531136,-1.186042,8.602251
-0.511235,-1.196239,8.557816
-0.525797,-1.203833,8.52438
-0.550419,-1.200571,8.47093
-0.501444,-1.181142,8.45335
-0.491505,-1.158562,8.421204
-0.481124,-1.192249,8.392605
-0.457198,-1.181219,8.403118
-0.476211,-1.149525,8.398834
-0.445798,-1.14647,8.36629
-0.460693,-1.119007,8.39286
-0.423448,-1.132824,8.365963
-0.419539,-1.096137,8.380397
-0.435797,-1.057052,8.396369
-0.429455,-1.029938,8.424267
-0.440336,-1.036087,8.441071
-0.469712,-1.025703,8.4742
-0.495394,-0.950612,8.466442
-0.499877,-0.927683,8.466618
-0.478235,-0.920297,8.46134
-0.484554,-0.92319,8.458615
-0.481188,-0.905137,8.47735
-0.489548,-0.847488,8.469641
-0.45452,-0.857317,8.455383
-0.41456,-0.850571,8.457089
-0.413428,-0.839275,8.475649
-0.390423,-0.813741,8.478469
-0.373868,-0.810422,8.481298
-0.353761,-0.815484,8.478813
-0.344546,-0.836849,8.481572
-0.35682,-0.851171,8.510276
-0.361145,-0.844156,8.521874
-0.352892,-0.837925,8.49638
-0.338588,-0.884767,8.515693
-0.331441,-0.881549,8.524674
-0.318975,-0.883104,8.55401
-0.326591,-0.918777,8.579546
-0.296818,-0.942623,8.607058
-0.301306,-0.991477,8.633122
-0.260757,-1.001166,8.680375
-0.252153,-1.000832,8.698347
-0.240147,-1.053804,8.702385
-0.228169,-1.09542,8.754958
-0.225817,-1.094301,8.753434
-0.170468,-1.141788,8.775095
-0.182686,-1.146308,8.80122
-0.176516,-1.190362,8.820686
-0.170644,-1.242864,8.845351
-0.138858,-1.263848,8.904753
-0.127517,-1.276299,8.966715
-0.109434,-1.324651,8.991643
-0.097164,-1.379298,9.056764
-0.096726,-1.375099,9.106416
-0.104735,-1.403849,9.139114
-0.108385,-1.421182,9.184845
-0.091999,-1.491002,9.22027
-0.074306,-1.485934,9.284862
-0.076383,-1.487888,9.304873
-0.102075,-1.496069,9.329848
-0.070006,-1.497838,9.321782
-0.049619,-1.516686,9.37126
-0.066679,-1.506128,9.402395
-0.024024,-1.503703,9.42674
0.018052,-1.507145,9.49056
0.068526,-1.511557,9.524021
0.128608,-1.521805,9.554114
0.148986,-1.462,9.620694
0.178557,-1.478611,9.625792
0.232893,-1.495443,9.682834
0.226411,-1.47948,9.745814
0.24619,-1.479561,9.767614
0.256244,-1.463195,9.826619
0.256076,-1.435096,9.872145
0.266064,-1.449386,9.947682
0.278624,-1.444556,10.03003
0.270282,-1.401816,10.097423
0.289162,-1.340089,10.145445
0.313071,-1.361524,10.181834
0.276107,-1.347683,10.250613
0.282008,-1.351719,10.298743
0.28052,-1.317971,10.359272
0.259829,-1.264224,10.434444
0.262221,-1.293686,10.450755
0.262176,-1.268996,10.528832
0.259371,-1.19008,10.568659
0.199067,-1.174869,10.588968
0.221535,-1.163703,10.576879
0.220884,-1.13478,10.616125
0.219924,-1.08015,10.627337
0.230401,-1.033547,10.610499
0.223378,-1.00861,10.616425
0.271317,-0.984132,10.621625
0.318514,-0.97348,10.650999
0.31959,-0.897293,10.642078
0.384644,-0.862988,10.574089
0.449873,-0.829482,10.597888
0.458933,-0.771672,10.582105
0.475045,-0.762095,10.546074
0.488877,-0.685492,10.558879
0.508445,-0.688371,10.549031
0.509569,-0.672756,10.529697
0.500919,-0.650199,10.521995
0.491762,-0.595791,10.52153
0.443601,-0.614367,10.532817
0.415137,-0.63846,10.582948
0.335247,-0.636185,10.649298
0.286247,-0.650097,10.67508
0.238624,-0.655122,10.726966
0.179914,-0.655315,10.801045
0.09415,-0.719645,10.872613
0.027474,-0.700808,10.998358
-0.066042,-0.714105,11.087039
-0.1316,-0.73734,11.201986
-0.202912,-0.780847,11.353766
-0.255663,-0.81105,11.48958
-0.321245,-0.793918,11.622609
-0.33246,-0.817894,11.71865
-0.323884,-0.792715,11.828807
-0.288743,-0.804652,11.984459
-0.232681,-0.74669,12.058435
-0.14511,-0.680226,12.138349
-0.020652,-0.634298,12.187578
0.11657,-0.578243,12.277336
0.237174,-0.515611,12.357886
0.334189,-0.436873,12.400259
0.460688,-0.310895,12.467904
0.581214,-0.242503,12.524431
0.653756,-0.181216,12.582273
0.706375,-0.05891,12.610946
0.778592,0.076069,12.634407
0.854008,0.19425,12.657741
0.91445,0.318298,12.618372
0.968421,0.419275,12.577935
1.009162,0.571628,12.54503
1.072253,0.726766,12.47136
1.113291,0.865586,12.399765
1.1483,0.956256,12.329025
1.175225,1.071491,12.267514
1.181182,1.187297,12.16497
1.193221,1.250202,12.091901
1.208314,1.333811,11.987044
1.181291,1.371941,11.877122
1.145887,1.428043,11.765889
1.12482,1.435115,11.62429
1.135278,1.403178,11.491116
1.071436,1.394193,11.36487
1.049257,1.332978,11.223811
1.033168,1.281732,11.089339
1.027926,1.1918,10.957337
1.006234,1.093729,10.855024
0.981711,0.958784,10.706803
0.946912,0.861058,10.578859
0.951514,0.803855,10.438711
0.939555,0.697934,10.250308
0.96411,0.636324,10.086467
0.958888,0.615421,9.916371
1.004486,0.5556,9.712827
1.014357,0.558724,9.575157
1.013627,0.548543,9.45844
1.015861,0.518244,9.320964
0.966997,0.559994,9.179396
0.915258,0.563773,9.038864
0.888666,0.617303,8.899976
0.842071,0.653806,8.804388
0.742385,0.754514,8.679063
0.685116,0.824757,8.589127
0.610832,0.908748,8.500584
0.501468,0.978101,8.42926
0.410594,1.044956,8.352849
0.32589,1.192993,8.334289
0.225296,1.236603,8.275234
0.18549,1.339879,8.247134
0.068371,1.463575,8.271143
0.076182,1.587248,8.271587
0.057827,1.713874,8.311856
0.00688,1.819422,8.351992
-0.08119,1.86831,8.441121
-0.139147,1.960814,8.502266
-0.202104,2.060036,8.624588
-0.259065,2.11326,8.701642
-0.287029,2.132815,8.80852
-0.375513,2.211532,8.940045
-0.462126,2.234486,8.99487
-0.503566,2.238327,9.116501
-0.593106,2.228859,9.222402
-0.635417,2.230914,9.27552
-0.674968,2.266629,9.395655
-0.757716,2.272031,9.49348
-0.800021,2.22595,9.532278
-0.806524,2.185068,9.597782
-0.821988,2.188627,9.673645
-0.795884,2.172072,9.695154
-0.786855,2.165211,9.743726
-0.763001,2.060437,9.777907
-0.753267,1.99993,9.792749
-0.693883,1.989199,9.866783
-0.655442,1.92855,9.879562
-0.564159,1.847957,9.878603
-0.50906,1.763357,9.899532
-0.474808,1.68362,9.910327
-0.392332,1.608954,9.897238
-0.27828,1.528371,9.920631
-0.235829,1.425569,9.92796
-0.155622,1.269834,9.901393
-0.062104,1.2138,9.903078
0.007216,1.137092,9.861265
0.107482,0.995947,9.812176
0.203299,0.919429,9.761775
0.293632,0.858262,9.746064
0.342938,0.781592,9.681494
0.431153,0.693465,9.63634
0.50457,0.582597,9.596446
0.560739,0.493984,9.57241
0.585525,0.454061,9.551966
0.627,0.349179,9.48953
0.66091,0.279583,9.447562
0.636952,0.232306,9.392587
0.651533,0.15723,9.306425
0.629489,0.118667,9.25093
0.58806,0.082316,9.17249
0.557923,0.022056,9.095423
0.501424,-0.001217,9.03298
0.453639,0.001028,8.968529
0.395997,-0.010423,8.876281
0.370493,-0.025925,8.773845
0.324753,-0.045993,8.728589
0.277875,-0.01529,8.645772
0.224403,0.024979,8.583172
0.174615,0.018866,8.51078
0.099118,0.029223,8.437198
0.057982,0.008657,8.376202
-0.028645,0.07889,8.354964
-0.074496,0.086792,8.312771
-0.134173,0.11492,8.277301
-0.216248,0.117601,8.22713
-0.255247,0.200848,8.234198
-0.288493,0.22854,8.238082
-0.375012,0.251667,8.221665
-0.376453,0.231626,8.221523
-0.448063,0.291605,8.276025
-0.534564,0.342277,8.288375
-0.550105,0.335014,8.287237
-0.582336,0.36611,8.32729
-0.621344,0.342241,8.358298
-0.654938,0.3689,8.395752
-0.667521,0.414727,8.444123
-0.680844,0.356441,8.474088
-0.67317,0.345619,8.545568
-0.737633,0.401897,8.576995
-0.72641,0.402828,8.617537
-0.716631,0.402632,8.685556
-0.730307,0.40881,8.753391
-0.732452,0.407537,8.812268
-0.737401,0.389322,8.869096
-0.742004,0.407133,8.926438
-0.7319,0.364429,8.942022
-0.748929,0.342593,9.012821
-0.741273,0.379738,9.044844
-0.746224,0.365316,9.055562
-0.73494,0.343434,9.117723
-0.728199,0.349046,9.135989
-0.716153,0.331302,9.179414
-0.716047,0.397389,9.245212
-0.681879,0.365419,9.237368
-0.658753,0.332487,9.26021
-0.657136,0.35093,9.28839
-0.658318,0.364993,9.343349
-0.613392,0.387625,9.314771
-0.553617,0.416368,9.355737
-0.540993,0.391178,9.357188
-0.508172,0.386928,9.329327
-0.490175,0.419682,9.372709
-0.462321,0.410948,9.357251
-0.45258,0.370624,9.347549
-0.469959,0.410998,9.382259
-0.491333,0.437454,9.370053
-0.486718,0.44302,9.313805
-0.493734,0.480492,9.31377
-0.483074,0.444733,9.297389
-0.487945,0.489785,9.291061
-0.482264,0.501864,9.298469
-0.471688,0.494779,9.278913
-0.461742,0.499784,9.275946
-0.464123,0.517058,9.272932
-0.470887,0.505697,9.241771
-0.444045,0.499209,9.211074
-0.423782,0.508556,9.20227
-0.444305,0.465681,9.147726
-0.461713,0.460758,9.148511
-0.449868,0.492865,9.109568
-0.424762,0.437634,9.04877
-0.441011,0.412285,9.023739
-0.451612,0.419798,8.967181
-0.454565,0.389198,8.922861
-0.43673,0.384349,8.892484
-0.442031,0.359578,8.844084
-0.450899,0.285243,8.792713
-0.433992,0.259549,8.758447
-0.44679,0.290057,8.73102
-0.461026,0.227809,8.656166
-0.443486,0.181314,8.65278
-0.49409,0.191629,8.601945
-0.53566,0.144084,8.516643
-0.523648,0.132959,8.522238
-0.530799,0.102441,8.497298
-0.576258,0.034169,8.490336
-0.624108,0.050993,8.520298
-0.636933,0.034026,8.491657
-0.666155,-0.00412,8.512276
-0.677036,-0.030768,8.545981
-0.723447,-0.030466,8.570053
-0.755518,-0.012593,8.56847
-0.77026,-0.025035,8.567244
-0.796282,-0.026703,8.549476
-0.802691,-0.036492,8.559694
-0.823397,0.011883,8.581957
-0.822822,0.031027,8.583192
-0.82007,0.010601,8.612466
-0.838263,0.03971,8.651755
-0.852002,0.060897,8.681413
-0.876467,0.112309,8.697769
-0.884807,0.090684,8.725677
-0.94039,0.122438,8.805686
-0.951713,0.129403,8.844694
-0.970398,0.116622,8.878734
-1.002481,0.127262,8.961891
-1.035412,0.101456,9.024257
-0.969908,0.069764,9.09678
-1.051823,0.021744,9.173373
-1.042867,0.085684,9.366612
-1.091613,0.156921,9.416082
-1.223637,0.011639,9.345456
-0.712531,-0.010282,9.486416
-1.37217,0.097995,9.884114
-1.269588,-0.164385,9.236907
-0.473484,-0.004869,9.708559
-0.926302,0.275046,10.322749
-1.175637,0.06737,9.920649
-0.869705,-0.47253,9.892401
-1.019987,0.04078,10.509719
-1.028169,-0.175972,10.137318
-0.843551,-0.265518,10.131946
-0.85681,-0.064178,10.467298
-0.535831,-0.286405,10.550438
-0.684432,-0.210666,10.763558
-0.725153,-0.004163,10.844422
-0.727311,-0.012359,10.743268
-0.731056,-0.111455,10.687588
-0.62127,-0.054399,10.788565
-0.602938,0.041934,10.900689
-0.631057,-0.006242,11.028677
-0.53019,-0.021448,11.204913
-0.454486,-0.081222,11.390284
-0.477589,-0.082134,11.53553
-0.367141,-0.056749,11.638232
-0.263804,-0.030688,11.736641
-0.217887,-0.077734,11.885802
-0.196673,-0.132117,11.968681
-0.154357,-0.130645,12.033869
-0.100985,-0.207013,12.215208
0.012202,-0.435034,12.311286
-0.215747,0.056298,12.470271
0.321597,-0.519928,12.532072
0.080128,-0.344433,12.938219
-0.414172,0.148534,12.866955
0.229601,-0.109934,12.393323
0.444135,-0.208625,12.783642
0.283436,-0.227888,13.206521
0.488566,-0.30306,13.370945
0.347913,-0.101163,13.702868
0.477988,-0.267321,14.00335
0.236029,-0.175555,13.792021
0.601183,-0.082506,13.410876
0.839882,-0.182533,13.654313
0.670425,0.004183,13.887132
0.624117,0.038925,13.664384
0.878997,0.039001,13.505765
1.116077,0.057703,13.528001
1.16598,-0.033521,13.420357
1.309605,0.02277,13.392187
1.466557,0.069054,13.372444
1.361476,0.188788,13.299559
1.643129,0.110794,12.992102
2.105956,0.141763,12.899655
1.81437,0.201391,13.044203
2.226474,0.287884,12.841032
2.384574,-0.162515,13.020525
2.119001,0.568028,13.284203
2.169761,0.227301,12.503747
2.357161,0.366826,12.548971
2.36092,0.509607,12.541223
2.350559,0.403581,12.431639
2.132707,0.608946,12.391356
2.177236,0.637749,12.382354
2.036043,0.622096,12.370605
1.823035,0.623764,12.246427
1.792565,0.953249,12.021981
1.808837,0.833603,11.994444
1.529691,1.006118,12.097375
1.246429,1.094046,11.772603
1.294962,1.192855,11.532606
1.139624,1.376467,11.439192
1.019973,1.413112,11.31383
0.79209,1.421078,11.126395
0.60009,1.630167,11.005149
0.5615,1.689179,10.805746
0.405849,1.656508,10.563071
0.288965,1.750421,10.362732
0.263116,1.799999,10.118156
0.196936,1.815422,9.982751
0.140847,1.837068,9.789036
0.150778,1.783974,9.626006
0.152701,1.817414,9.427097
0.129276,1.863363,9.199854
0.187696,1.791374,8.993074
0.193375,1.776833,8.822777
0.306459,1.663299,8.639028
0.354367,1.685307,8.547251
0.453892,1.705328,8.32285
0.472363,1.681677,8.140669
0.459026,1.516463,8.033569
0.568438,1.36248,7.809668
0.830214,1.485672,7.793997
0.991132,1.493958,7.858802
1.037061,1.424736,7.813945
1.092031,1.273847,7.703422
1.185347,1.285377,7.617406
1.262015,1.361444,7.581967
1.425649,1.266969,7.569672
1.456502,1.106446,7.588722
1.547073,1.044474,7.657092
1.629678,1.019365,7.733883
1.714176,0.932685,7.805716
1.795949,0.838903,7.915983
1.815087,0.749735,8.018866
1.833633,0.679148,8.126465
1.897701,0.648635,8.186026
1.97839,0.56831,8.244314
2.013606,0.483003,8.328036
2.069764,0.473026,8.460768
2.143098,0.451905,8.560232
2.195483,0.438773,8.689107
2.216653,0.380177,8.793684
2.263367,0.352922,8.877544
2.25057,0.34626,8.96038
2.251352,0.342555,9.019627
2.246247,0.314091,9.118934
2.201646,0.285141,9.208883
2.129893,0.252988,9.290053
2.076378,0.238208,9.417477
2.012215,0.215918,9.497946
1.92255,0.193612,9.616763
1.812958,0.185513,9.735854
1.753354,0.190728,9.823012
1.68834,0.195071,9.917994
1.561153,0.161315,10.008204
1.496548,0.153304,10.086909
1.413705,0.191369,10.144457
1.325645,0.214142,10.164334
1.289431,0.257561,10.168869
1.24369,0.259276,10.169264
1.172301,0.301697,10.198463
1.121215,0.310387,10.194729
1.068593,0.318116,10.171318
1.033879,0.34688,10.161365
0.980954,0.355376,10.138439
0.935667,0.355091,10.088238
0.938265,0.373654,10.049308
0.873487,0.411012,10.014545
0.799204,0.331997,9.956303
0.745188,0.325884,9.930994
0.71733,0.356419,9.876744
0.659874,0.281509,9.813906
0.602993,0.248268,9.817295
0.548713,0.198503,9.768664
0.498054,0.141732,9.723229
0.500193,0.107652,9.683486
0.42415,0.063188,9.647065
0.349591,-0.027394,9.597501
0.313529,-0.051458,9.572021
0.24858,-0.075441,9.523965
0.214154,-0.109711,9.461624
0.148797,-0.157648,9.430113
0.036264,-0.179754,9.349442
-0.012727,-0.192416,9.285718
-0.103323,-0.162359,9.187493
-0.142671,-0.208833,9.115614
-0.194749,-0.216449,9.050982
-0.247489,-0.213585,8.968132
-0.294706,-0.19973,8.944028
-0.322333,-0.19465,8.873813
-0.29845,-0.212382,8.831805
-0.338299,-0.192197,8.825696
-0.328695,-0.173242,8.81208
-0.319817,-0.153268,8.778412
-0.302157,-0.212214,8.742201
-0.301166,-0.186621,8.742984
-0.312367,-0.176856,8.706838
-0.305107,-0.161576,8.674529
-0.295724,-0.159844,8.684946
-0.294311,-0.207516,8.689958
-0.272125,-0.187053,8.707194
-0.27512,-0.157146,8.691333
-0.277123,-0.149204,8.686489
-0.223225,-0.199027,8.655861
-0.240693,-0.206567,8.680607
-0.230824,-0.190237,8.710047
-0.26951,-0.207939,8.704943
-0.238734,-0.213225,8.770294
-0.244445,-0.245189,8.756776
-0.288656,-0.272024,8.821957
-0.290456,-0.27677,8.841722
-0.323339,-0.267638,8.894381
-0.279726,-0.332373,8.930152
-0.280204,-0.335553,9.010331
-0.2746,-0.352154,9.039372
-0.247375,-0.363516,9.112355
-0.215253,-0.370908,9.178682
-0.20512,-0.402676,9.212112
-0.125166,-0.37805,9.256724
-0.067719,-0.349414,9.324126
-0.00226,-0.365094,9.327489
0.070946,-0.391194,9.342226
0.171994,-0.354637,9.434283
0.201761,-0.327585,9.435376
0.262081,-0.325967,9.434422
0.291041,-0.316759,9.435515
0.320272,-0.305915,9.406401
0.364672,-0.269121,9.381745
0.391989,-0.264434,9.376836
0.387208,-0.286144,9.338568
0.401187,-0.314899,9.309811
0.407432,-0.293627,9.302589
0.386901,-0.254276,9.265348
0.398315,-0.260237,9.246919
0.390505,-0.264196,9.243582
0.360169,-0.289891,9.20348
0.400729,-0.276958,9.181052
0.35708,-0.237435,9.180674
0.344217,-0.297885,9.121638
0.330199,-0.310846,9.141643
0.288588,-0.297772,9.133372
0.257789,-0.293412,9.105429
0.258766,-0.283857,9.070599
0.210364,-0.305388,9.074029
0.197272,-0.362213,9.074525
0.161503,-0.36216,9.092452
0.129221,-0.354485,9.099243
0.106478,-0.387985,9.092446
0.102524,-0.402695,9.118958
0.086252,-0.373441,9.12964
0.09224,-0.374007,9.114192
0.121781,-0.363738,9.126838
0.083085,-0.392913,9.139011
0.073377,-0.401162,9.110902
0.050717,-0.367225,9.117433
0.014975,-0.349204,9.096706
0.016706,-0.377509,9.065185
0.008535,-0.41028,9.097464
-0.02176,-0.366959,9.096336
-0.022463,-0.40225,9.109374
-0.051755,-0.386411,9.129081
-0.052111,-0.447234,9.11582
-0.085033,-0.465841,9.143915
-0.093952,-0.45181,9.180771
-0.115351,-0.486164,9.198042
-0.127767,-0.508668,9.201323
-0.162655,-0.555878,9.256256
-0.19482,-0.593252,9.277837
-0.26021,-0.577575,9.309852
-0.320154,-0.599925,9.314514
-0.365834,-0.64713,9.343596
-0.424395,-0.648156,9.38791
-0.479356,-0.643574,9.430938
-0.525393,-0.662881,9.440872
-0.592129,-0.674973,9.481463
-0.632187,-0.710674,9.498055
-0.685208,-0.67381,9.52378
-0.703274,-0.635728,9.557246
-0.720845,-0.642298,9.582717
-0.759482,-0.65872,9.607218
-0.774691,-0.646467,9.647213
-0.807539,-0.608332,9.685183
-0.820835,-0.582964,9.719009
-0.855339,-0.564871,9.777205
-0.832415,-0.583919,9.82663
-0.821564,-0.57811,9.892142
-0.798684,-0.546773,9.93192
-0.777347,-0.587862,9.960491
-0.758011,-0.625101,9.991715
-0.748447,-0.601083,10.042763
-0.75148,-0.588204,10.05623
-0.754976,-0.624037,10.08191
-0.738902,-0.653532,10.109816
-0.760623,-0.663337,10.179741
-0.772473,-0.682492,10.207497
-0.777921,-0.674107,10.250281
-0.768933,-0.710952,10.323721
-0.765769,-0.776531,10.381478
-0.780617,-0.760084,10.49728
-0.749355,-0.794914,10.583155
-0.759432,-0.8352,10.662017
-0.72815,-0.882659,10.733756
-0.742829,-0.852484,10.831967
-0.712998,-0.889751,10.928741
-0.702701,-0.927726,11.037072
-0.673647,-0.94629,11.202166
-0.63009,-0.969911,11.32771
-0.573073,-0.932096,11.479043
-0.518667,-0.928992,11.599211
-0.399863,-0.923981,11.709535
-0.325475,-0.925656,11.850689
-0.228285,-0.896418,11.979157
-0.097575,-0.851163,12.087747
0.003707,-0.782138,12.185936
0.131943,-0.772606,12.262409
0.245757,-0.706331,12.357918
0.324008,-0.562078,12.486181
0.435908,-0.520997,12.493356
0.558157,-0.4215,12.569021
0.624365,-0.278307,12.727136
0.717396,-0.184004,12.773643
0.825785,-0.037603,12.846601
0.93528,0.120008,12.924516
1.056992,0.246957,12.940161
1.190877,0.351557,12.974959
1.302412,0.614064,12.996512
1.446799,0.793331,12.918728
1.577129,0.937999,12.782526
1.672385,1.115788,12.664546
1.72207,1.259868,12.515989
1.786585,1.458251,12.313923
1.853636,1.566366,12.162422
1.832971,1.663271,12.016894
1.848903,1.780774,11.847285
1.804117,1.856347,11.719377
1.698158,1.904602,11.527739
1.632214,1.950134,11.31135
1.550097,1.980213,11.117118
1.465459,1.967629,10.949637
1.328079,1.935249,10.799687
1.243751,1.873442,10.605007
1.154802,1.789029,10.457111
1.009565,1.708006,10.348383
0.896297,1.604219,10.223145
0.772585,1.506024,10.115785
0.656757,1.324382,9.999396
0.548609,1.192413,9.935454
0.422612,1.03647,9.851065
0.33502,0.908993,9.71954
0.229078,0.831517,9.62844
0.144437,0.644872,9.510514
0.040665,0.52981,9.418347
-0.057178,0.47188,9.337679
-0.124781,0.379031,9.275084
-0.190492,0.315657,9.21676
-0.265401,0.253882,9.183403
-0.315875,0.206594,9.110467
-0.332502,0.282296,9.067973
-0.325585,0.292587,8.975713
-0.333357,0.323825,8.9551
-0.345719,0.369893,8.961578
-0.345733,0.443221,8.930644
-0.313583,0.516266,8.91651
-0.265189,0.595972,8.941086
-0.290391,0.656949,8.930073
-0.207522,0.764517,8.961911
-0.209953,0.925811,8.990458
-0.181869,0.983957,9.016504
-0.159758,1.036705,9.094355
-0.143028,1.161287,9.165258
-0.175115,1.224316,9.187476
-0.180458,1.301576,9.254382
-0.189694,1.357516,9.317468
-0.191289,1.431602,9.408556
-0.201699,1.497688,9.501406
-0.160753,1.522312,9.59628
-0.150783,1.528767,9.728492
-0.175173,1.560765,9.822578
-0.173002,1.549854,9.936998
-0.183047,1.551515,10.025485
-0.165567,1.521744,10.124698
-0.167726,1.488525,10.247194
-0.166905,1.461959,10.344933
-0.123427,1.415445,10.434446
-0.141494,1.423717,10.549704
-0.132056,1.292678,10.617321
-0.093122,1.207976,10.634049
-0.096458,1.180694,10.687868
-0.039238,1.15396,10.684582
0.027853,1.092441,10.669426
0.046908,0.9893,10.630673
0.048296,0.89254,10.632018
0.072176,0.833276,10.590332
0.076904,0.818155,10.561483
0.144482,0.742376,10.473691
0.184592,0.64465,10.383102
0.190652,0.632943,10.305857
0.246118,0.551912,10.176166
0.243083,0.518157,10.074186
0.252589,0.457471,9.959135
0.285342,0.410101,9.825239
0.297613,0.432049,9.689919
0.306906,0.374705,9.546747
0.323486,0.33261,9.39539
0.385284,0.313702,9.288073
0.346123,0.286818,9.224677
0.31476,0.302707,9.056168
0.366299,0.230095,8.944511
0.350968,0.223801,8.868609
0.345866,0.200351,8.754652
0.333732,0.208937,8.672358
0.264718,0.193234,8.602221
0.235184,0.154875,8.458451
0.204318,0.12328,8.371021
0.162938,0.132157,8.327018
0.179641,0.06959,8.275228
0.020786,0.16376,8.266726
0.049007,0.124141,8.139917
-0.052707,0.122848,8.06851
-0.068297,0.114244,8.009411
-0.070898,0.140995,7.963936
-0.116871,0.146448,7.956002
-0.185151,0.11502,7.945724
-0.192276,0.13687,7.932437
-0.19449,0.166654,7.882551
-0.195643,0.183473,7.848977
-0.213555,0.145774,7.833778
-0.236111,0.221922,7.851358
-0.247381,0.225841,7.838058
-0.259117,0.24244,7.829856
-0.264482,0.237015,7.850554
-0.273901,0.277377,7.83074
-0.304915,0.3209,7.861637
-0.309926,0.32645,7.87273
-0.336319,0.355104,7.884248
-0.299613,0.343723,7.899391
-0.319359,0.387436,7.918801
-0.338828,0.400934,7.946345
-0.327865,0.367374,7.977395
-0.362232,0.333138,8.021585
-0.373798,0.319815,8.049726
-0.353472,0.330772,8.085253
-0.340848,0.341915,8.137472
-0.356628,0.276981,8.171762
-0.350098,0.234612,8.240024
-0.38065,0.222521,8.294628
-0.393101,0.204458,8.333281
-0.327299,0.132436,8.38253
-0.34113,0.11142,8.463593
-0.34048,0.092205,8.481403
-0.320283,0.056962,8.5437
-0.320666,0.060713,8.612126
-0.307942,-0.01093,8.60473
-0.271013,-0.033024,8.672553
-0.299181,-0.032386,8.720075
-0.280367,-0.059726,8.694464
-0.247013,-0.032327,8.743602
-0.258818,-0.06531,8.774712
-0.244043,-0.109578,8.782908
-0.213802,-0.045974,8.828901
-0.228555,-0.033853,8.820536
-0.208811,-0.089988,8.835547
-0.208652,-0.071938,8.846994
-0.21675,-0.065918,8.877679
-0.193169,-0.061816,8.894557
-0.199317,-0.073337,8.913915
-0.214905,-0.062147,8.961744
-0.260306,-0.055596,9.017516
-0.265264,-0.056609,9.037661
-0.28565,-0.024292,9.087494
-0.306371,-0.064061,9.132624
-0.317511,-0.0202,9.193114
-0.33383,0.028846,9.215169
-0.333187,0.010121,9.211184
-0.322593,0.032518,9.247874
-0.349598,0.035672,9.250832
-0.3324,0.041185,9.270258
-0.349658,0.074724,9.268735
-0.336908,0.057721,9.249154
-0.30856,0.048459,9.229694
-0.341191,0.044618,9.249815
-0.35223,0.067113,9.212572
-0.328629,0.076225,9.174542
-0.346281,0.080052,9.193753
-0.354666,0.062794,9.164804
-0.340812,0.055171,9.151972
-0.345027,0.10353,9.151256
-0.371226,0.042953,9.123853
-0.41188,-0.003376,9.126797
-0.509703,0.006802,9.15673
-0.587613,-0.018119,9.11814
-0.658416,-0.037066,9.110686
-0.731183,-0.082384,9.110474
-0.788239,-0.109684,9.103926
-0.870595,-0.124012,9.119617
-0.944402,-0.142696,9.102787
-1.018501,-0.194215,9.07601
-1.084501,-0.196004,9.109974
-1.132831,-0.215946,9.086881
-1.188302,-0.233896,9.097497
-1.240832,-0.215355,9.117174
-1.271487,-0.251992,9.149322
-1.338709,-0.282574,9.178414
-1.379856,-0.270114,9.206999
-1.401987,-0.26904,9.263067
-1.438952,-0.325968,9.286251
-1.448029,-0.343793,9.342713
-1.516371,-0.344538,9.387549
-1.531909,-0.349854,9.433182
-1.515202,-0.346138,9.468812
-1.506988,-0.38999,9.515421
-1.538806,-0.360243,9.558136
-1.502308,-0.348667,9.638992
-1.479406,-0.342411,9.667979
-1.452733,-0.351438,9.714618
-1.412767,-0.348756,9.779956
-1.390976,-0.329545,9.857286
-1.345802,-0.31141,9.897427
-1.290885,-0.299833,9.988821
-1.238026,-0.30085,10.030371
-1.161035,-0.317957,10.07593
-1.143142,-0.232357,10.138896
-1.102561,-0.229053,10.176408
-1.046345,-0.224464,10.22669
-0.992527,-0.167856,10.298278
-0.953918,-0.155826,10.37465
-0.905544,-0.126192,10.453864
-0.863289,-0.067035,10.555134
-0.826386,-0.065561,10.629956
-0.781968,-0.060404,10.713095
-0.721043,-0.021204,10.821515
-0.673792,-0.002269,10.910934
-0.63814,-0.031057,11.009776
-0.574055,-0.028727,11.125009
-0.541726,-0.008296,11.199377
-0.478971,-0.034369,11.270808
-0.414959,-0.045504,11.3719
-0.368095,-0.077465,11.433288
-0.341287,-0.126217,11.480008
-0.31513,-0.125095,11.576641
-0.308743,-0.170098,11.62143
-0.298068,-0.253336,11.657602
-0.319261,-0.278432,11.716339
-0.326461,-0.32984,11.724314
-0.331644,-0.362779,11.755537
-0.34287,-0.405177,11.764043
-0.346604,-0.479293,11.818079
-0.391979,-0.531944,11.845648
-0.435409,-0.562931,11.858991
-0.423833,-0.598521,11.891944
-0.438429,-0.671505,11.931515
-0.500981,-0.720618,11.977612
-0.559588,-0.723503,11.989077
-0.646007,-0.705248,12.05962
-0.567675,-0.438465,12.221249
-0.498905,-0.466689,12.287978
-0.630727,-0.50222,12.297239
-0.724764,-0.761657,12.21558
-0.819712,-0.7135,12.337537
-0.827016,-0.499163,12.467762
-0.790368,-0.459143,12.557433
-0.80177,-0.545825,12.598882
-0.861849,-0.611699,12.592193
-0.800398,-0.726438,12.607476
-0.811551,-0.787413,12.707068
-0.897561,-0.744319,12.753298
-0.604283,-0.766362,12.798077
-0.654269,-0.685434,12.93109
-0.122349,-0.650907,12.795092
0.030516,-0.305833,13.161341
0.160148,-0.22602,13.06748
0.23368,-0.049228,12.79786
1.016574,0.000531,12.556613
1.100345,0.17485,12.502895
1.19193,0.287549,12.389806
2.108982,0.31693,11.910343
1.514807,0.509036,11.850682
3.107022,0.721526,11.509318
2.27469,0.836007,12.480095
1.758282,0.973358,11.290333
2.97549,1.035486,10.357774
3.183741,1.286892,10.916502
2.930116,1.235444,11.144489
2.801384,1.141397,10.985867
2.340952,1.099932,10.748616
2.294705,0.597453,10.558623
2.292387,0.129258,10.350718
2.460922,0.232347,10.149398
2.693038,0.664415,9.874516
2.690921,0.887201,9.837439
2.328196,0.788718,10.020619
2.198014,0.799355,10.026899
2.177198,0.816899,9.93325
1.987537,0.86968,9.966239
1.814412,0.850582,9.919191
1.898094,0.7666,9.767823
1.852853,0.752967,9.674774
1.740962,0.804486,9.552975
1.686122,0.842024,9.421676
1.676771,0.81574,9.271963
1.655217,0.77102,9.165052
1.702438,0.657864,9.110434
1.694001,0.520243,9.051614
1.679376,0.416063,8.971161
1.638894,0.246245,8.903558
1.582629,0.132129,8.8494
1.652085,0.142672,8.791478
1.701629,0.150911,8.749524
1.675866,0.207065,8.75888
1.6175,0.245517,8.749742
1.61208,0.20898,8.716864
1.596235,0.19154,8.753731
1.544118,0.190984,8.819595
1.532547,0.17705,8.84036
1.564127,0.164085,8.889816
1.464351,0.145228,8.945109
1.439383,0.100374,8.925939
1.412735,0.085043,8.972661
1.351764,0.090915,9.032402
1.404952,0.189213,9.180113
1.392319,0.369427,9.383817
1.504347,0.996641,9.912912
1.601793,2.238553,10.633028
1.108399,-0.080855,9.189361
0.858193,-0.152895,9.464502
1.006287,0.363921,9.836114
0.984799,0.307375,9.80697
0.840807,0.150769,9.712697
0.889693,0.195935,9.84927
0.858818,0.223276,10.033909
0.838613,0.021536,9.943252
0.869653,0.083691,10.10985
0.831791,0.125939,10.278798
0.851823,0.022995,10.324248
0.855151,-0.033984,10.430554
0.829022,-0.091474,10.515758
0.840097,-0.090433,10.552582
0.855479,-0.116471,10.626955
0.891774,-0.180497,10.702227
0.893735,-0.27555,10.757555
0.906523,-0.336266,10.820226
0.908174,-0.35536,10.868261
0.937619,-0.388857,10.890851
0.961772,-0.468082,10.90629
0.950192,-0.474705,10.913306
0.935479,-0.476294,10.914219
0.930946,-0.527507,10.89859
0.916393,-0.507099,10.905844
0.889726,-0.5556,10.886574
0.872097,-0.544953,10.84291
0.851375,-0.493143,10.802648
0.879647,-0.534155,10.707052
0.851478,-0.475237,10.636568
0.845535,-0.499461,10.558097
0.787231,-0.45403,10.465212
0.793417,-0.44444,10.321069
0.762716,-0.461203,10.196718
0.75375,-0.466093,10.024576
0.770444,-0.396645,9.880799
0.729543,-0.357536,9.729271
0.707664,-0.385177,9.542526
0.724016,-0.343753,9.468613
0.734362,-0.330615,9.32116
0.753387,-0.281586,9.21083
0.75461,-0.251886,9.088642
0.78953,-0.225657,8.945347
0.810241,-0.226133,8.841455
0.840616,-0.187849,8.733276
0.847358,-0.149158,8.623835
0.861715,-0.123527,8.531997
0.872301,-0.140624,8.436767
0.849338,-0.106462,8.371751
0.839008,-0.110277,8.288129
0.824828,-0.03469,8.257397
0.789637,-0.089258,8.168169
0.778633,-0.092775,8.106453
0.735337,-0.021056,8.079153
0.696496,-0.00293,8.022747
0.687334,0.014633,7.987864
0.660353,-0.007563,7.956077
0.590801,0.021558,7.951521
0.542673,0.065025,7.910908
0.47469,0.090391,7.912861
0.426601,0.112484,7.907089
0.358705,0.088947,7.903337
0.277048,0.136518,7.899774
0.23396,0.153758,7.870209
0.202417,0.169552,7.846057
0.161998,0.171213,7.82229
0.138501,0.207383,7.768949
0.124375,0.255115,7.743431
0.114163,0.31566,7.681908
0.092812,0.322297,7.654207
0.062113,0.320755,7.628488
0.044115,0.366598,7.606907
0.034568,0.363965,7.599332
0.019982,0.33574,7.598652
-0.014748,0.306709,7.616398
-0.053375,0.308525,7.61156
-0.112843,0.313021,7.642961
-0.111467,0.258648,7.642256
-0.128778,0.172824,7.664297
-0.194333,0.165222,7.749171
-0.230569,0.116521,7.752226
-0.255796,0.061117,7.809855
-0.320285,0.026023,7.857894
-0.346265,-0.097994,7.885389
-0.39793,-0.106407,7.961917
-0.421838,-0.138735,7.998201
-0.448391,-0.191506,8.031912
-0.453146,-0.277495,8.073088
-0.503566,-0.320121,8.15536
-0.517645,-0.329125,8.191785
-0.496894,-0.358876,8.230219
-0.528467,-0.409712,8.23758
-0.503237,-0.432551,8.287523
-0.503393,-0.444659,8.329006
-0.491824,-0.426979,8.384816
-0.4978,-0.459041,8.384997
-0.447403,-0.476656,8.42808
-0.446576,-0.453487,8.497122
-0.444943,-0.462617,8.5134
-0.407502,-0.454307,8.567277
-0.403316,-0.503835,8.595836
-0.386373,-0.482986,8.647377
-0.353862,-0.48288,8.691861
-0.329537,-0.44944,8.712171
-0.293533,-0.454165,8.752462
-0.288061,-0.531198,8.833602
-0.348143,-0.493107,8.892671
-0.390722,-0.491934,8.912415
-0.37465,-0.515494,8.928022
-0.411662,-0.542309,8.989107
-0.438967,-0.60008,9.040055
-0.504423,-0.579929,9.064829
-0.519727,-0.599704,9.110755
-0.533607,-0.611796,9.132505
-0.587699,-0.665955,9.199846
-0.634859,-0.674375,9.252655
-0.696457,-0.670361,9.285715
-0.69462,-0.71615,9.326754
-0.763193,-0.743961,9.371158
-0.763618,-0.766211,9.403682
-0.770877,-0.754552,9.503332
-0.79564,-0.738398,9.527348
-0.843911,-0.785071,9.629667
-0.838567,-0.789214,9.707359
-0.833495,-0.776638,9.79259
-0.803665,-0.769506,9.884859
-0.791386,-0.796654,9.954115
-0.777754,-0.844669,10.051477
-0.743556,-0.854986,10.143255
-0.701777,-0.856144,10.204709
-0.696532,-0.865471,10.241827
-0.652411,-0.89385,10.282177
-0.612615,-0.925114,10.335185
-0.608471,-0.880687,10.342667
-0.54565,-0.861341,10.390183
-0.503033,-0.842317,10.426134
-0.463642,-0.862402,10.476645
-0.433192,-0.84845,10.498949
-0.402759,-0.810127,10.532111
-0.326023,-0.790528,10.546066
-0.252912,-0.789805,10.576561
-0.221286,-0.7788,10.633823
-0.195167,-0.739664,10.666791
-0.150873,-0.690291,10.728617
-0.068571,-0.721226,10.760034
-0.072843,-0.704854,10.834424
-0.044823,-0.693892,10.884219
-0.023,-0.695539,10.94536
-0.009562,-0.701573,11.003964
0.029735,-0.739633,11.038084
0.000803,-0.774041,11.110378
-0.051035,-0.797038,11.176704
-0.088639,-0.821887,11.244155
-0.124115,-0.885775,11.34402
-0.164878,-0.955331,11.431516
-0.208096,-1.023151,11.534915
-0.266167,-1.073975,11.648803
-0.313089,-1.147868,11.773252
-0.340488,-1.196771,11.901034
-0.339985,-1.26741,12.050908
-0.404749,-1.251743,12.216608
-0.412177,-1.302605,12.334796
-0.414197,-1.363949,12.529493
-0.427498,-1.3543,12.711046
-0.379835,-1.336687,12.863269
-0.345368,-1.277393,13.046696
-0.273472,-1.265373,13.16121
-0.172777,-1.240852,13.252515
-0.089588,-1.140871,13.358718
0.041301,-1.071526,13.418401
0.22022,-0.960482,13.442816
0.395265,-0.870302,13.43949
0.611282,-0.739921,13.428013
0.790931,-0.584151,13.43848
0.943554,-0.422076,13.412221
1.141914,-0.245535,13.39631
1.345118,-0.06684,13.396482
1.50058,0.097627,13.386539
1.66951,0.334413,13.4002
1.848355,0.525603,13.351751
1.998971,0.670406,13.323297
2.146667,0.899017,13.278563
2.275885,1.0583,13.18988
2.361304,1.272121,13.101799
2.465402,1.416506,12.997454
2.481712,1.554226,12.887386
2.501341,1.759739,12.775389
2.472129,1.867618,12.64502
2.412549,1.959605,12.492609
2.332996,2.034431,12.317547
2.233863,2.127799,12.167058
2.089687,2.178404,11.992508
1.969407,2.232529,11.794075
1.86396,2.255212,11.56676
1.769347,2.239524,11.377414
1.619878,2.207272,11.15741
1.502583,2.142317,10.927135
1.409006,2.101127,10.722545
1.3108,1.99226,10.506952
1.175302,1.864212,10.319749
1.104951,1.788111,10.122395
0.964042,1.692273,9.936384
0.917524,1.541781,9.739523
0.768846,1.449096,9.598395
0.63431,1.302813,9.42213
0.52405,1.231235,9.280094
0.42975,1.125528,9.142642
0.389924,0.990423,9.008982
0.356468,0.956407,8.916481
0.322952,0.887943,8.802342
0.373618,0.827052,8.647399
0.362935,0.799552,8.61384
0.312674,0.78685,8.534106
0.353615,0.722472,8.436005
0.398547,0.793255,8.377203
0.460082,0.809009,8.334841
0.506529,0.719976,8.258227
0.515857,0.804776,8.255317
0.565517,0.839315,8.220799
0.581789,0.896235,8.21376
0.591947,0.906612,8.226604
0.563557,0.951693,8.264941
0.578423,0.961768,8.275853
0.567107,1.054191,8.363901
0.549508,1.091943,8.418772
0.5626,1.084312,8.482806
0.52605,1.158835,8.600883
0.542125,1.21794,8.658754
0.605282,1.269494,8.739272
0.614797,1.300695,8.847474
0.622122,1.320725,8.889231
0.66662,1.388884,8.969013
0.684176,1.450492,9.060799
0.687618,1.419656,9.115041
0.689037,1.422646,9.150823
0.659948,1.424137,9.233762
0.650931,1.427173,9.270194
0.661364,1.381895,9.297204
0.656739,1.337733,9.392532
0.680355,1.287607,9.480518
0.712517,1.245726,9.54912
0.706598,1.21891,9.652062
0.731332,1.129716,9.693417
0.734444,1.048548,9.767189
0.743253,0.985268,9.853283
0.724814,0.902237,9.86951
0.779715,0.815733,9.894948
0.730168,0.758568,9.927088
0.68679,0.65745,9.919762
0.680781,0.599839,9.8834
0.721321,0.562058,9.840307
0.728161,0.481241,9.774927
0.73812,0.398204,9.720824
0.755991,0.345308,9.594556
0.760058,0.338628,9.529244
0.839839,0.309678,9.4245
0.853188,0.250275,9.340749
0.867957,0.165701,9.22546
0.956508,0.189253,9.149006
0.953814,0.07335,9.049942
1.03554,0.05396,9.095261
0.944002,0.400705,9.100483
0.913812,0.245275,8.747654
0.878682,0.225189,8.748306
0.806436,0.49107,8.71275
0.747305,0.245343,8.45671
0.853657,0.371239,8.500178
0.830688,0.472351,8.559246
0.750634,0.412339,8.44981
0.809355,0.348505,8.453773
0.733649,0.526666,8.623187
0.62664,0.578157,8.390332
0.789461,0.347016,8.238953
0.878319,0.532946,8.605735
0.593045,0.510973,8.600536
0.201886,0.426754,8.331293
0.297668,0.626651,8.311905
0.338762,0.75401,8.146402
0.415244,0.271872,8.022807
0.288091,0.601233,8.281714
0.044764,0.765952,8.331381
-0.019574,0.618042,8.258971
0.015122,0.60941,8.277524
-0.082915,0.538207,8.290002
-0.124692,0.51221,8.240887
-0.156005,0.621324,8.352746
-0.233966,0.570819,8.362166
-0.333134,0.471511,8.298323
-0.319632,0.508021,8.255217
-0.445526,0.585911,8.261435
-0.455815,0.544316,8.236502
-0.482707,0.543662,8.245973
-0.596334,0.460927,8.155757
-0.544745,0.389782,8.131107
-0.573964,0.451939,8.191905
-0.615404,0.424388,8.188451
-0.648389,0.344577,8.179965
-0.64473,0.367797,8.188101
-0.620818,0.323595,8.185435
-0.648686,0.321322,8.22399
-0.691247,0.322597,8.278811
-0.699269,0.269589,8.282246
-0.716778,0.274587,8.319423
-0.730307,0.263879,8.330372
-0.736426,0.228884,8.309036
-0.758707,0.21067,8.370485
-0.778738,0.203906,8.412524
-0.773154,0.192117,8.452065
-0.7666,0.168552,8.502232
-0.781645,0.132642,8.529753
-0.768458,0.092903,8.576058
-0.751902,0.097283,8.645231
-0.715915,0.103244,8.685912
-0.696568,0.052695,8.67676
-0.699892,0.017361,8.719798
-0.680401,0.010781,8.743645
-0.667497,0.045261,8.760771
-0.648269,0.008221,8.796034
-0.59848,-0.050368,8.819057
-0.592874,-0.045284,8.850655
-0.61594,-0.057441,8.8864
-0.585162,-0.078881,8.861005
-0.567961,-0.111566,8.850682
-0.543882,-0.127267,8.876665
-0.580833,-0.108023,8.907385
-0.560322,-0.108953,8.897774
-0.555476,-0.126356,8.946436
-0.555481,-0.156514,8.926954
-0.540948,-0.219636,8.927381
-0.561412,-0.142865,8.988399
-0.54429,-0.171406,8.955804
-0.522499,-0.183848,8.970819
-0.521553,-0.201628,9.008845
-0.506794,-0.215837,9.005959
-0.503066,-0.220056,9.02746
-0.48114,-0.201329,9.027454
-0.463452,-0.251245,9.034388
-0.428296,-0.25747,9.044801
-0.419071,-0.218903,9.076436
-0.457649,-0.205446,9.063634
-0.429347,-0.223634,9.089831
-0.490335,-0.193444,9.120448
-0.586158,-0.279563,9.040732
-0.110334,-0.118904,9.141266
-0.655764,-0.304598,9.183305
-1.269692,-0.412265,8.989401
0.124514,0.059954,9.062563
-0.241876,0.002676,9.432798
-1.110927,-0.382221,9.298173
-1.116292,-0.511612,9.12117
-0.965788,-0.059684,9.38495
-0.890662,-0.124877,9.186259
-0.602978,-0.044875,9.298058
-1.047178,-0.538683,9.241152
-1.03379,-0.362416,9.608111
-1.191432,-0.114919,9.74094
-1.274942,-0.325944,9.588119
-1.144666,-0.221756,9.608947
-1.249506,-0.128405,9.635379
-1.376088,-0.202769,9.564559
-1.262776,-0.153253,9.666853
-1.362838,-0.128411,9.737155
-1.402483,-0.226216,9.743765
-1.406476,-0.112382,9.869862
-1.368459,-0.064474,9.924125
-1.300591,-0.117394,9.928476
-1.242048,-0.110621,10.058289
-1.239089,-0.136779,10.138462
-1.190301,-0.148857,10.208859
-1.156309,-0.100478,10.317627
-1.163234,-0.064744,10.421352
-1.133805,-0.147154,10.45075
-1.073396,-0.157448,10.554929
-1.093028,-0.114065,10.657637
-1.074325,-0.15728,10.731473
-1.05542,-0.168947,10.81158
-1.039234,-0.175676,10.924917
-1.031172,-0.207,11.004734
-1.010263,-0.181835,11.138745
-0.968069,-0.17782,11.265801
-0.929432,-0.194045,11.3738
-0.891441,-0.211531,11.51139
-0.856402,-0.1916,11.633408
-0.804249,-0.17622,11.718524
-0.774259,-0.183132,11.851585
-0.762825,-0.198793,11.939198
-0.75331,-0.246437,11.999513
-0.740587,-0.205776,12.081243
-0.689122,-0.207484,12.141749
-0.676374,-0.238583,12.175553
-0.683482,-0.225452,12.215369
-0.701698,-0.24129,12.199622
-0.686281,-0.218522,12.24127
-0.711196,-0.245034,12.242143
-0.709052,-0.276664,12.225533
-0.705513,-0.276218,12.244365
-0.741275,-0.283625,12.219789
-0.791376,-0.321953,12.192154
-0.771372,-0.37392,12.150419
-0.831266,-0.432801,12.140237
-0.876415,-0.469465,12.096057
-0.937767,-0.531656,12.027008
-0.98148,-0.581431,11.983015
-1.061294,-0.650065,11.945594
-1.181791,-0.713175,11.905901
-1.287035,-0.772017,11.821188
-1.380011,-0.827605,11.786501
-1.50117,-0.907359,11.722599
-1.598186,-0.976586,11.684694
-1.709814,-0.991989,11.637708
-1.800428,-1.056573,11.572716
-1.874056,-1.10556,11.543634
-1.955977,-1.119422,11.473294
-2.008519,-1.149807,11.425014
-2.069863,-1.139961,11.349651
-2.06315,-1.132896,11.36138
-2.06606,-1.128187,11.346566
-2.068859,-1.094365,11.345856
-2.042946,-1.069582,11.385741
-2.052386,-0.963942,11.461537
-2.013762,-0.903841,11.565582
-1.98563,-0.791687,11.669923
-1.963791,-0.791606,11.744666
-1.903883,-0.787586,11.780778
-1.804629,-0.748584,11.911142
-1.639511,-0.671304,12.024257
-1.46854,-0.50025,12.152438
-1.244,-0.343236,12.199853
-0.986916,-0.2371,12.170556
-0.715113,-0.163484,12.102645
-0.416139,-0.079106,11.984651
-0.116556,0.043987,11.833712
0.242725,0.17435,11.646727
0.57509,0.269381,11.527843
0.903904,0.400024,11.354527
1.23763,0.560243,11.16813
1.522157,0.649891,10.983051
1.832281,0.679962,10.769135
2.084038,0.73139,10.584385
2.305312,0.806103,10.413353
2.495058,0.863354,10.228495
2.657954,0.870113,10.002397
2.781867,0.853145,9.82749
2.836965,0.855892,9.668134
2.87571,0.867348,9.545087
2.900571,0.91506,9.396411
2.992495,0.911389,9.29938
3.025536,0.909592,9.243913
3.015869,0.904917,9.216259
3.00973,0.928793,9.139291
2.991845,0.971262,8.957042
3.190902,1.499145,9.208551
3.047565,1.477212,9.09082
2.82754,0.343354,8.286822
2.792285,0.443683,8.402139
2.736229,0.656754,8.464754
2.594086,0.540196,8.342569
2.474003,0.329896,8.186561
2.372253,0.397732,8.185161
2.269223,0.406755,8.177996
2.196679,0.311984,8.122508
2.104819,0.27326,8.118156
2.009778,0.260302,8.147208
1.920316,0.272786,8.198719
1.876727,0.269306,8.224728
1.797722,0.2278,8.279519
1.709247,0.210102,8.327669
1.632422,0.26345,8.397886
1.547106,0.289683,8.444397
1.476612,0.253585,8.499847
1.363796,0.290361,8.60124
1.280085,0.317294,8.667027
1.20952,0.334723,8.778121
1.123882,0.365093,8.892225
1.080765,0.346773,8.986639
1.032576,0.38154,9.129849
0.958366,0.448139,9.275871
0.917841,0.445474,9.39839
0.855315,0.454012,9.529693
0.741923,0.451388,9.695948
0.651529,0.452354,9.85728
0.534766,0.450205,10.010247
0.432506,0.393805,10.114081
0.342115,0.381512,10.226784
0.283645,0.394095,10.317123
0.254992,0.402154,10.415045
0.220357,0.355112,10.485597
0.145171,0.231272,10.594903
0.067663,0.213426,10.732467
0.071954,0.172337,10.817411
0.100887,0.13224,10.87462
0.083187,0.065162,10.884733
0.186875,-0.02317,10.917188
0.137257,-0.038514,10.971088
0.19193,-0.07699,10.9518
0.217977,-0.134867,10.950883
0.291089,-0.20161,10.981562
0.272192,-0.281256,10.993732
0.308657,-0.314243,11.01551
0.335873,-0.392256,11.015623
0.370962,-0.590879,11.011347
0.290613,-0.652772,11.005467
0.332156,-0.548768,10.996769
0.344477,-0.741354,10.83118
0.391891,-0.747859,10.845694
0.354722,-0.844027,10.831812
0.340147,-0.964505,10.775463
0.287929,-1.024957,10.723085
0.238688,-1.058784,10.633293
0.260846,-1.193795,10.535896
0.192307,-1.199883,10.407639
0.162632,-1.25303,10.27026
0.148937,-1.267336,10.121265
0.131119,-1.357854,9.973434
0.126001,-1.410751,9.851461
0.153262,-1.440466,9.755315
0.146003,-1.467576,9.673446
0.104826,-1.526541,9.535896
0.092718,-1.565827,9.370615
0.06188,-1.5346,9.290083
0.001904,-1.546533,9.126587
-0.015125,-1.560076,8.972851
-0.056382,-1.528057,8.866906
-0.122905,-1.519702,8.75124
-0.162431,-1.502015,8.661435
-0.17684,-1.410892,8.53689
-0.157132,-1.357978,8.442338
-0.142067,-1.305618,8.338299
-0.142044,-1.220758,8.27246
-0.184254,-1.115639,8.187519
-0.135492,-1.04203,8.124261
-0.190132,-0.977075,8.068873
-0.171253,-0.875453,8.013638
-0.159997,-0.75696,7.97752
-0.211663,-0.644565,7.935207
-0.219451,-0.574317,7.88538
-0.207787,-0.49824,7.897128
-0.244748,-0.395579,7.858926
-0.266415,-0.28624,7.82961
-0.285243,-0.200283,7.825699
-0.265112,-0.111756,7.814629
-0.263914,-0.083612,7.785641
-0.275146,0.016533,7.770644
-0.253773,0.113546,7.733163
-0.210145,0.141901,7.707182
-0.144562,0.153411,7.700087
-0.123036,0.226427,7.700393
-0.091858,0.278577,7.68998
-0.060054,0.285704,7.665545
-0.09505,0.267816,7.661195
-0.103469,0.223134,7.659354
-0.151898,0.260107,7.687484
-0.186028,0.245751,7.670853
-0.173233,0.144393,7.663654
-0.245497,0.100781,7.673131
-0.28966,0.060953,7.691305
-0.347235,0.050568,7.696981
-0.307648,-0.022959,7.729627
-0.383444,-0.09483,7.771379
-0.387748,-0.161358,7.786732
-0.44391,-0.153604,7.837391
-0.471684,-0.193509,7.86714
-0.544835,-0.284197,7.884825
-0.55484,-0.321779,7.922157
-0.620685,-0.365442,7.994195
-0.632327,-0.410864,8.021603
-0.657055,-0.429629,8.065537
-0.685067,-0.507831,8.094992
-0.70549,-0.551088,8.132588
-0.706043,-0.514545,8.166103
-0.736097,-0.538553,8.1496
-0.658559,-0.587694,8.178149
-0.693458,-0.607194,8.250387
-0.68365,-0.595785,8.257846
-0.636891,-0.594784,8.268689
-0.609394,-0.596723,8.318132
-0.612354,-0.641838,8.296567
-0.586946,-0.66708,8.320164
-0.624336,-0.607033,8.350474
-0.613005,-0.638965,8.338396
-0.586964,-0.655102,8.361086
-0.571795,-0.623451,8.417874
-0.622017,-0.658407,8.431162
-0.640722,-0.665536,8.505349
-0.68444,-0.64384,8.546398
-0.676583,-0.658636,8.626827
-0.713947,-0.666847,8.69157
-0.729232,-0.66492,8.790329
-0.768801,-0.630385,8.87077
-0.826258,-0.680894,8.968706
-0.824391,-0.669449,9.035212
-0.900141,-0.665528,9.154883
-0.878219,-0.657165,9.22492
-0.947533,-0.65585,9.334376
-0.929449,-0.708209,9.401661
-0.934289,-0.729347,9.527339
-0.986236,-0.707784,9.621643
-0.966583,-0.751706,9.661061
-0.960594,-0.723487,9.774493
-0.991334,-0.841105,9.836814
-1.007431,-0.873037,9.933591
-0.984237,-0.868973,10.011127
-1.003271,-0.930303,10.105159
-1.009169,-0.965626,10.176162
-1.02439,-1.008493,10.235089
-0.99374,-1.015205,10.322159
-0.974437,-1.047542,10.365147
-0.918689,-1.092736,10.447488
-0.916075,-1.118661,10.495243
-0.83985,-1.133074,10.589002
-0.789103,-1.140757,10.673211
-0.773224,-1.192338,10.764977
-0.755081,-1.23057,10.857893
-0.71625,-1.217527,10.972092
-0.691083,-1.272947,11.062703
-0.637193,-1.254685,11.162317
-0.636634,-1.308169,11.257238
-0.662595,-1.324092,11.372832
-0.650031,-1.295609,11.455352
-0.646961,-1.304528,11.554861
-0.701372,-1.328771,11.666819
-0.698233,-1.379993,11.745485
-0.741744,-1.306159,11.833396
-0.762955,-1.289636,11.87969
-0.748138,-1.212654,11.96404
-0.735124,-1.192184,12.005405
-0.756273,-1.153678,12.040437
-0.722939,-1.088192,12.099188
-0.734408,-1.023525,12.075632
-0.720092,-0.9821,12.073618
-0.669655,-0.964503,12.070382
-0.687701,-0.902725,12.085571
-0.693787,-0.874069,12.059651
-0.707583,-0.875165,12.052653
-0.721338,-0.879464,12.01266
-0.719027,-0.871459,11.960625
-0.767565,-0.864992,11.87363
-0.778414,-0.871994,11.782692
-0.810388,-0.922926,11.711691
-0.860803,-0.935848,11.629351
-0.880514,-0.980729,11.521962
-0.955573,-1.043242,11.477974
-1.035125,-1.17964,11.412605
-1.149091,-1.287078,11.386056
-1.263982,-1.380166,11.3649
-1.411042,-1.528919,11.331347
-1.523324,-1.665239,11.329115
-1.668492,-1.825296,11.36559
-1.813555,-1.953456,11.399174
-1.923507,-2.055292,11.474844
-2.017545,-2.13426,11.546093
-2.025137,-2.201534,11.642027
-1.977748,-2.263222,11.720484
-1.854866,-2.175146,11.85744
-1.656236,-1.996053,11.99999
-1.435669,-1.879757,12.146782
-1.193453,-1.713352,12.275937
-0.951608,-1.533651,12.480038
-0.69004,-1.338781,12.586065
-0.391501,-1.142075,12.643714
-0.152758,-0.890673,12.73613
0.017416,-0.688841,12.707751
0.203704,-0.341206,12.61723
0.642725,0.044108,12.479287
0.769015,0.358329,12.5713
0.919641,0.550438,12.485681
1.117617,0.827837,12.401977
1.269414,1.245806,12.335194
1.4885,1.636154,12.251306
1.676082,1.78064,12.089699
1.848183,2.040501,11.946128
1.988089,2.369903,11.846207
2.104226,2.579273,11.68013
2.21863,2.740129,11.505937
2.26599,2.919625,11.39564
2.305036,3.055041,11.305737
2.287813,3.123222,11.165808
2.264248,3.15844,11.098149
2.166111,3.155245,11.095846
2.062931,3.100625,11.004446
1.955038,3.055299,10.891969
1.846516,3.000354,10.75266
1.711999,2.857185,10.575788
1.601075,2.841152,10.543348
1.560907,2.746409,10.440594
1.446502,2.564342,10.361418
1.249614,2.362614,10.219011
1.144183,2.199117,10.114183
0.992084,2.073282,10.045013
0.908276,1.941738,9.995964
0.798385,1.739877,9.922661
0.747375,1.522806,9.842575
0.666154,1.385244,9.776348
0.657614,1.36122,9.68717
0.658998,1.314723,9.614545
0.626188,1.217298,9.536992
0.563992,1.077347,9.446204
0.516699,0.99694,9.299411
0.541158,0.97768,9.160969
0.513137,0.972901,9.052055
0.490842,0.858994,8.963134
0.512049,0.779742,8.87623
0.533687,0.740055,8.777303
0.536445,0.709366,8.704044
0.591793,0.656246,8.630533
0.648368,0.60809,8.60828
0.731101,0.52044,8.556745
0.783076,0.470727,8.561983
0.843807,0.429449,8.551324
0.915466,0.394142,8.558737
0.967237,0.34454,8.607111
1.057275,0.329481,8.648671
1.13952,0.246565,8.737363
1.153373,0.228972,8.901262
1.172532,0.217726,9.031531
1.093196,0.047094,9.145586
0.927541,0.199286,9.335947
0.890789,0.161973,9.22738
0.909376,0.152351,9.092661
0.888141,0.198148,8.904561
0.487589,0.255659,9.082949
0.284928,-0.058783,9.349649
0.256724,-0.197198,9.724287
0.053534,-0.145457,9.972116
-0.146525,-0.25826,9.969561
-0.173808,-0.256535,9.97548
-0.308006,-0.248005,10.059804
-0.505262,-0.280963,10.134949
-0.740618,-0.299476,10.127109
-0.878434,-0.442129,10.141334
-0.947411,-0.492436,10.205745
-1.002303,-0.549683,10.308318
-1.166548,-0.620354,10.379678
-1.261859,-0.645999,10.385336
-1.344753,-0.594724,10.368884
-1.430332,-0.673847,10.357187
-1.402956,-0.684149,10.268708
-1.457372,-0.698483,10.272941
-1.488058,-0.755643,10.206133
-1.494225,-0.714998,10.186075
-1.501712,-0.75604,10.165597
-1.478135,-0.78916,10.138517
-1.419845,-0.764447,10.112296
-1.360302,-0.740714,10.004033
-1.312927,-0.753369,9.848091
-1.284671,-0.748702,9.68127
-1.316617,-0.739647,9.52844
-1.322376,-0.763251,9.406439
-1.28232,-0.712142,9.304918
-1.240872,-0.727887,9.205318
-1.237859,-0.71321,9.081689
-1.202007,-0.6569,8.988387
-1.163977,-0.563302,8.866196
-1.065912,-0.550912,8.749194
-1.034023,-0.519043,8.609742
-0.984074,-0.474421,8.491491
-0.912076,-0.401894,8.414462
-0.822532,-0.366698,8.303364
-0.746285,-0.363476,8.232525
-0.637168,-0.319753,8.160129
-0.582881,-0.240602,8.107796
-0.538075,-0.210459,8.019967
-0.487159,-0.218361,7.933027
-0.456205,-0.178918,7.842572
-0.463349,-0.165012,7.741256
-0.493071,-0.118076,7.652029
-0.506161,-0.076584,7.586048
-0.501627,-0.089612,7.532676
-0.539092,-0.043197,7.492535
-0.562493,-0.025788,7.445361
-0.560231,-0.019769,7.411955
-0.582097,0.008847,7.370897
-0.55968,0.021078,7.34818
-0.533084,0.089981,7.30327
-0.466282,0.155255,7.287053
-0.406139,0.182267,7.248445
-0.377001,0.177835,7.242734
-0.361082,0.223127,7.240135
-0.32103,0.303981,7.249189
-0.269491,0.301783,7.234419
-0.249086,0.324575,7.241449
-0.258648,0.293058,7.216601
-0.233176,0.338839,7.245483
-0.222007,0.376527,7.227645
-0.243517,0.31411,7.209648
-0.241308,0.313902,7.233855
-0.269849,0.314272,7.253689
-0.319631,0.290727,7.261181
-0.340445,0.284638,7.271294
-0.369469,0.224128,7.281542
-0.38266,0.155158,7.326743
-0.455817,0.211028,7.379717
-0.478703,0.195068,7.382512
-0.550352,0.077422,7.407638
-0.563813,0.06209,7.46927
-0.650104,0.084591,7.563259
-0.712862,0.032571,7.556874
-0.790547,0.042208,7.598538
-0.825115,0.027913,7.645744
-0.956063,-0.031178,7.631071
-1.029122,-0.029422,7.708316
-1.07704,-0.07217,7.737646
-1.081384,-0.097935,7.752654
-1.096152,-0.167932,7.781723
-1.120533,-0.178823,7.84693
-1.197192,-0.204941,7.846064
-1.213238,-0.233683,7.922792
-1.236066,-0.301655,7.953045
-1.213063,-0.344312,8.016706
-1.246077,-0.39265,8.084364
-1.220467,-0.387107,8.151436
-1.228961,-0.44687,8.174172
-1.2141,-0.488993,8.218634
-1.205739,-0.520911,8.281786
-1.207307,-0.551385,8.26604
-1.179284,-0.567473,8.279217
-1.17475,-0.651753,8.296617
-1.186944,-0.685764,8.36725
-1.283671,-0.605151,8.293062
-1.156124,-0.755563,8.449274
-1.263255,-0.656805,8.724882
-1.373298,-0.781647,8.798663
-1.521623,-0.824615,8.994408
-1.557357,-0.861914,9.127684
-1.643711,-0.971837,9.279964
-1.739344,-1.047437,9.419882
-1.763158,-0.971401,9.533018
-1.771524,-0.849375,9.657301
-1.799922,-0.888143,9.708925
-1.789991,-0.881831,9.819708
-1.899853,-0.932886,9.962525
-1.942619,-0.930902,10.111262
-1.967613,-0.955062,10.214562
-1.912624,-0.974625,10.350282
-1.897148,-1.020981,10.453367
-1.865628,-1.029157,10.59909
-1.868083,-0.976112,10.696211
-1.790823,-1.066451,10.82816
-1.770653,-1.096513,10.979356
-1.73683,-1.237946,11.094274
-1.621128,-1.135653,11.240381
-1.435432,-0.999729,11.364779
-1.317315,-0.884862,11.461908
-1.159718,-0.798371,11.601679
-1.083526,-0.674807,11.676269
-0.98002,-0.631626,11.745999
-0.871249,-0.689279,11.800428
-0.778254,-0.670057,11.920463
-0.722119,-0.630157,12.017112
-0.687791,-0.632235,12.049258
-0.652703,-0.581048,12.128362
-0.665874,-0.635652,12.146587
-0.752318,-0.752982,12.232332
-0.869736,-0.793194,12.299208
-0.974505,-0.857522,12.370675
-1.037308,-0.884134,12.417808
-1.080963,-0.921411,12.494624
-1.182342,-0.955033,12.478928
-1.248972,-0.979597,12.492932
-1.284978,-0.945084,12.491723
-1.302912,-1.007508,12.454266
-1.321396,-1.01568,12.455432
-1.396702,-1.000847,12.453358
-1.465382,-1.038577,12.445487
-1.523194,-1.075294,12.448781
-1.583219,-1.105304,12.470856
-1.696426,-1.128395,12.481876
-1.774872,-1.138447,12.450973
-1.881093,-1.162228,12.498649
-2.008802,-1.205052,12.528631
-2.069083,-1.251379,12.585462
-2.162865,-1.210497,12.664957
-2.21268,-1.176474,12.750206
-2.238424,-1.155767,12.861423
-2.263592,-1.125038,12.974482
-2.220127,-1.035474,13.091092
-2.165636,-0.889886,13.183489
-2.077968,-0.714484,13.295481
-1.943605,-0.58275,13.368265
-1.735299,-0.410667,13.390365
-1.483734,-0.157912,13.373331
-1.174594,0.053507,13.300321
-0.794,0.255636,13.205114
-0.391928,0.437568,13.038418
0.011937,0.655675,12.850483
0.394993,0.854643,12.647712
0.779271,0.975068,12.419387
1.152321,1.08019,12.188305
1.488577,1.166865,12.00528
1.801526,1.263816,11.80373
2.080317,1.311564,11.620562
2.264315,1.313506,11.453984
2.42094,1.228833,11.284833
2.467232,1.13254,11.180199
1.997962,0.618958,11.160385
1.54521,-0.212921,10.935573
2.326612,0.274686,10.81164
2.946225,1.400336,10.972473
3.053452,1.486908,10.733629
3.005129,1.042284,10.44983
2.912508,0.762096,10.372628
2.739336,0.68,10.305894
2.617269,0.618285,10.157797
2.390204,0.532397,10.045292
2.218504,0.373895,9.932169
2.036619,0.236642,9.808372
1.834949,0.202991,9.737005
1.617252,0.24117,9.67099
1.441885,0.21809,9.645059
1.244282,0.155603,9.648309
1.032524,0.100239,9.618574
0.909024,0.162742,9.630967
0.783355,0.252677,9.643235
0.740404,0.2628,9.634193
0.697704,0.281132,9.687906
0.641074,0.27843,9.653754
0.655482,0.376481,9.64977
0.606771,0.515482,9.644975
0.635018,0.534332,9.589938
0.549343,0.579675,9.572184
0.549841,0.67068,9.580266
0.542695,0.743161,9.574968
0.59674,0.740192,9.617671
0.539543,0.694258,9.627441
0.528663,0.707323,9.667509
0.469694,0.756838,9.632468
0.472812,0.727232,9.642296
0.365271,0.714491,9.631518
0.334935,0.599481,9.593721
0.282031,0.619265,9.595768
0.178656,0.614433,9.65171
0.135796,0.496992,9.632751
0.107845,0.491777,9.717487
0.002974,0.489369,9.788122
-0.040349,0.434908,9.821586
-0.126822,0.400571,9.894533
-0.124028,0.357272,9.941939
-0.160908,0.331569,9.975162
-0.182732,0.330233,9.990286
-0.204959,0.283299,10.026941
-0.189396,0.177072,10.042487
-0.216169,0.186003,10.073825
-0.151746,0.157146,10.098252
-0.156529,0.12592,10.104548
-0.171798,0.043022,10.092583
-0.208681,-0.058066,10.085484
-0.16255,-0.081593,10.105263
-0.152998,-0.096223,10.123905
-0.172592,-0.21908,10.136252
-0.159596,-0.283478,10.169961
-0.17576,-0.396023,10.162761
-0.155562,-0.467244,10.122988
-0.115323,-0.51242,10.126128
-0.111075,-0.607562,10.118642
-0.164134,-0.702054,10.057338
-0.191554,-0.719422,10.040306
-0.189387,-0.713352,9.973845
-0.246982,-0.72835,9.871819
-0.26595,-0.781286,9.770122
-0.37654,-0.856747,9.640835
-0.470841,-0.90705,9.380778
-0.633157,-0.91017,9.226148
-0.768871,-1.163741,9.056555
-0.858302,-1.081606,9.091233
-0.766652,-0.925618,9.136291
-0.692893,-0.712106,9.098688
-0.652427,-0.64616,8.945136
-0.584809,-0.513871,8.850026
-0.553123,-0.445478,8.756033
-0.534841,-0.49283,8.667752
-0.597636,-0.746221,8.588013
-0.654352,-0.981269,8.498481
-0.608602,-1.044685,8.394911
-0.598665,-0.918078,8.32499
-0.556692,-0.914241,8.200795
-0.527319,-0.898718,8.075193
-0.460932,-0.837587,7.959418
-0.441606,-0.821879,7.856298
-0.404205,-0.765754,7.74017
-0.390064,-0.67994,7.648015
-0.324355,-0.674579,7.57359
-0.282076,-0.644629,7.528752
-0.248894,-0.597207,7.47511
-0.216404,-0.536937,7.40685
-0.167397,-0.519953,7.354003
-0.167088,-0.482561,7.318177
-0.139453,-0.46039,7.280828
-0.120834,-0.428492,7.281053
-0.065973,-0.377169,7.257404
-0.076579,-0.354328,7.214049
-0.105949,-0.318108,7.237975
-0.137862,-0.302293,7.23315
-0.174978,-0.28746,7.238266
-0.195838,-0.252836,7.252035
-0.211276,-0.218764,7.238816
-0.221728,-0.203381,7.261384
-0.238162,-0.179878,7.287934
-0.292117,-0.135136,7.308043
-0.271397,-0.168595,7.338916
-0.30779,-0.169519,7.382683
-0.33563,-0.160549,7.414932
-0.359944,-0.166763,7.437524
-0.358937,-0.172581,7.483084
-0.386991,-0.222932,7.505534
-0.411279,-0.241199,7.534497
-0.423372,-0.203739,7.581288
-0.436496,-0.266985,7.611133
-0.483465,-0.340558,7.648099
-0.50104,-0.380221,7.65472
-0.479102,-0.350152,7.683232
-0.514911,-0.407127,7.662141
-0.5178,-0.455192,7.683089
-0.550936,-0.489671,7.768955
-0.573085,-0.562712,7.815813
-0.621082,-0.570204,7.906967
-0.67873,-0.649009,7.966244
-0.686259,-0.743255,8.041093
-0.768092,-0.774688,8.137719
-0.805016,-0.820042,8.215497
-0.845834,-0.861055,8.26882
-0.910843,-0.947396,8.369525
-0.923235,-0.983639,8.464009
-0.975198,-1.020098,8.539141
-0.978437,-1.028525,8.583704
-0.935694,-1.046983,8.651003
-0.908191,-1.066561,8.729108
-0.900057,-1.096422,8.761867
-0.838001,-1.06281,8.792278
-0.76683,-1.041344,8.827793
-0.68555,-1.067401,8.874752
-0.644421,-1.078637,8.926703
-0.579023,-1.036479,8.959234
-0.525091,-1.035475,8.969748
-0.443676,-1.069103,8.971108
-0.379498,-1.087209,8.996697
-0.35629,-1.126028,9.031843
-0.380214,-1.118671,9.046871
-0.37084,-1.096732,9.08135
-0.385361,-1.151974,9.126951
-0.40235,-1.195417,9.214291
-0.436097,-1.17841,9.309748
-0.46809,-1.219933,9.377434
-0.519088,-1.219302,9.491235
-0.613583,-1.259826,9.607656
-0.700736,-1.292043,9.716655
-0.801473,-1.326102,9.83677
-0.883132,-1.306973,9.953217
-1.017276,-1.315215,10.067634
-1.080369,-1.372865,10.192014
-1.228274,-1.375702,10.285501
-1.288123,-1.345315,10.404722
-1.364872,-1.369305,10.490563
-1.404796,-1.363985,10.586215
-1.489924,-1.34472,10.696429
-1.532148,-1.333471,10.773658
-1.571188,-1.316672,10.854341
-1.592182,-1.299989,10.921578
-1.590645,-1.28219,10.977518
-1.630955,-1.259371,11.035744
-1.565888,-1.275208,11.092303
-1.602824,-1.286596,11.165943
-1.56919,-1.33924,11.267449
-1.577435,-1.321317,11.316639
-1.511779,-1.325908,11.371639
-1.467202,-1.330884,11.451382
-1.413174,-1.395141,11.534497
-1.465673,-1.434871,11.654729
-1.404632,-1.444993,11.730788
-1.35373,-1.481698,11.850368
-1.322039,-1.538504,11.968162
-1.340787,-1.583455,12.062068
-1.35919,-1.644906,12.19418
-1.38304,-1.646177,12.293011
-1.386514,-1.685741,12.384011
-1.403209,-1.776507,12.507365
-1.449752,-1.807868,12.613855
-1.475866,-1.805458,12.759444
-1.449826,-1.82536,12.869632
-1.422768,-1.875293,13.019175
-1.353489,-1.873271,13.157809
-1.289141,-1.826694,13.258135
-1.179795,-1.793334,13.372634
-1.084003,-1.781043,13.448146
-0.981756,-1.747426,13.498897
-0.866809,-1.678688,13.582539
-0.798421,-1.599082,13.606439
-0.700644,-1.562535,13.634957
-0.623429,-1.514981,13.654049
-0.564408,-1.428147,13.615994
-0.480914,-1.321187,13.575125
-0.434993,-1.1877,13.502456
-0.417413,-1.096752,13.390979
-0.388166,-0.995674,13.313332
-0.399228,-0.796718,13.214439
-0.358204,-0.616886,13.083916
-0.330203,-0.484388,13.016239
-0.33123,-0.299994,12.916851
-0.323166,-0.174066,12.786804
-0.315206,0.021461,12.668738
-0.271406,0.179436,12.549173
-0.292441,0.313238,12.373773
-0.254129,0.448501,12.260934
-0.253282,0.647803,12.17463
-0.22352,0.853923,12.05611
-0.226639,0.90135,11.891184
-0.272221,0.83066,11.64681
-0.271373,0.763415,11.459891
-0.235627,0.660019,11.253769
-0.281241,0.825046,11.116938
-0.141424,0.983421,10.949088
-0.103545,1.035126,10.793907
-0.084077,1.0832,10.595852
-0.063427,1.055965,10.397211
-0.024609,1.034286,10.205881
-0.06954,1.036004,10.063195
-0.011338,1.027301,9.883021
0.004925,0.973773,9.745613
-0.039725,1.012239,9.657304
0.029951,1.026387,9.604319
0.01673,1.116554,9.584534
0.004353,1.249075,9.595364
0.015806,1.340235,9.577612
0.007908,1.397083,9.536141
-0.032216,1.427603,9.494649
-0.108113,1.473746,9.448287
-0.221557,1.491848,9.4057
-0.244465,1.500512,9.379928
-0.268392,1.574452,9.371733
-0.269586,1.647726,9.320162
-0.324619,1.763467,9.283508
-0.276581,1.843467,9.203337
-0.250308,1.962634,9.197484
-0.245448,2.10476,9.188917
-0.1573,2.196551,9.12907
-0.19357,2.270851,9.150738
-0.135334,2.234116,9.078004
-0.104099,2.259148,9.083822
-0.122199,2.372496,9.167389
-0.103763,2.325188,9.12247
-0.112837,2.353987,9.161182
-0.066464,2.362341,9.210303
-0.101434,2.305011,9.238615
-0.106227,2.265176,9.283246
-0.109301,2.282223,9.340885
-0.080849,2.221662,9.416292
-0.071225,2.150144,9.478934
-0.078904,2.096977,9.549726
-0.116195,2.036776,9.590277
-0.108674,1.969216,9.630658
-0.159162,1.872225,9.71428
-0.195255,1.758994,9.779629
-0.207976,1.696892,9.812319
-0.234498,1.627158,9.891972
-0.294162,1.479269,9.888626
-0.306952,1.340203,9.917633
-0.345703,1.294926,9.990115
-0.390949,1.132908,9.931947
-0.321352,1.029287,9.954784
-0.317814,0.931328,10.001775
-0.289953,0.711506,9.952153
-0.25312,0.637481,9.962056
-0.244375,0.554166,9.890059
-0.15071,0.422616,9.806975
-0.062,0.313783,9.697388
-0.048415,0.219652,9.619785
-0.02846,0.126035,9.518268
0.029612,0.026866,9.413973
0.048332,-0.065799,9.293413
0.07036,-0.205491,9.169442
0.085682,-0.270122,9.078524
0.106934,-0.370437,8.935082
0.113155,-0.501484,8.79737
0.112276,-0.541901,8.683342
0.116305,-0.552036,8.568718
0.096974,-0.511102,8.444349
0.095446,-0.520512,8.32982
0.100181,-0.572645,8.20504
0.036037,-0.62777,8.110703
-0.002997,-0.669098,8.060611
-0.067134,-0.708111,7.972989
-0.146056,-0.765565,7.871352
-0.261322,-0.767476,7.797587
-0.354673,-0.790235,7.737862
-0.446449,-0.772225,7.657551
-0.594274,-0.7416,7.636918
-0.701868,-0.761303,7.619188
-0.822104,-0.758977,7.615429
-0.971258,-0.725399,7.616385
-1.103787,-0.675102,7.607526
-1.203196,-0.656991,7.592907
-1.39698,-0.625936,7.524126
-1.459649,-0.530416,7.486097
-1.527939,-0.585638,7.397551
-1.604127,-0.389152,7.472065
-1.675839,-0.452862,7.351503
-1.739316,-0.482416,7.43831
-1.979901,-0.21926,7.467751
-1.980741,-0.167565,7.3107
-1.991039,-0.251533,7.037808
-1.839641,-0.115961,7.101593
-1.775523,-0.108743,7.074903
-1.591239,-0.149883,7.087344
-1.790934,-0.07982,7.327476
-1.926494,-0.001469,7.270788
-1.577257,-0.136504,6.921026
-1.319365,-0.030125,7.019299
-1.512176,0.003979,7.169733
-1.614619,-0.058739,7.157864
-1.727321,0.047804,7.174821
-1.575373,0.037543,7.023475
-1.369991,-0.086718,7.000606
-1.495936,-0.09599,7.132235
-1.539639,-0.088076,7.23566
-1.603849,0.004204,7.304986
-1.49042,-0.094203,7.373564
-1.511326,-0.225524,7.400989
-1.615771,-0.758976,7.516793
-1.902326,-1.743004,7.540822
-2.008998,-2.405872,7.457556
-1.836433,-1.889159,7.623886
-1.651734,-1.061635,7.69381
-1.437112,-0.420878,7.727571
-1.340868,-0.082049,7.779691
-1.411216,0.155535,7.818628
-1.249118,0.292843,7.789356
-1.091698,0.361879,7.943317
-1.099406,0.396148,8.036402
-1.117715,0.316662,8.113378
-1.026071,0.304419,8.166486
-1.090836,0.121034,8.196987
-1.13819,-0.124426,8.205449
-1.141732,-0.266067,8.272664
-1.154805,-0.366228,8.218518
-1.148931,-0.259605,8.275274
-1.121603,-0.222179,8.308851
-1.106519,-0.206949,8.331118
-1.078153,-0.155091,8.325589
-1.02535,-0.066303,8.383532
-1.023176,-0.044459,8.406591
-1.039949,-0.027876,8.455969
-1.054597,-0.055229,8.525864
-1.122519,-0.129752,8.549688
-1.251508,-0.007672,8.543914
-1.52406,0.120904,8.453129
-1.847682,0.191631,8.661525
-1.689045,0.20944,8.87488
-1.727043,0.260814,8.993066
-1.732395,0.130583,9.002887
-1.77294,0.071664,9.125181
-1.837613,0.007585,9.156986
-1.843324,-0.026169,9.194914
-1.796341,-0.092748,9.283068
-1.826712,-0.15062,9.364506
-1.774901,-0.169228,9.417786
-1.720493,-0.162727,9.480027
-1.705085,-0.24338,9.516456
-1.678617,-0.294736,9.536793
-1.606383,-0.330367,9.564484
-1.609721,-0.418583,9.569242
-1.591995,-0.530492,9.564741
-1.623524,-0.668585,9.60927
-1.637449,-0.763678,9.643058
-1.643551,-0.820528,9.677037
-1.692578,-0.950465,9.694131
-1.738423,-1.021728,9.736876
-1.776107,-1.012326,9.784467
-1.842511,-1.102823,9.838693
-1.914476,-1.009076,9.88491
-1.93148,-0.940953,10.005576
-1.963274,-0.967373,10.082328
-2.049721,-0.978322,10.210055
-2.105362,-0.967624,10.334548
-2.167349,-1.050963,10.474419
-2.224571,-1.073298,10.607138
-2.190217,-1.128724,10.798214
-2.262866,-1.125771,10.984158
-2.325859,-1.135051,11.138478
-2.320921,-1.16022,11.289006
-2.350887,-1.148038,11.467675
-2.362589,-1.274259,11.620265
-2.361949,-1.402337,11.729543
-2.353295,-1.43096,11.829888
-2.339899,-1.433537,11.886692
-2.298013,-1.368811,11.966697
-2.196071,-1.334607,11.966174
-2.116586,-1.280561,12.023816
-2.035597,-1.248954,12.072678
-1.943857,-1.220304,12.109223
-1.92121,-1.240529,12.193938
-1.895107,-1.165168,12.292168
-1.734632,-1.19192,12.339694
-1.809425,-1.234012,12.471945
-1.803174,-1.246073,12.539232
-1.800516,-1.250056,12.657209
-1.866606,-1.310204,12.681392
-1.825101,-1.416598,12.725471
-1.860808,-1.49017,12.856057
-1.946807,-1.568833,12.924884
-2.036875,-1.611114,13.054969
-2.111386,-1.627357,13.095584
-2.132514,-1.717473,13.154305
-2.190633,-1.780763,13.216131
-2.2322,-1.82641,13.299196
-2.312397,-1.844552,13.388084
-2.373824,-1.853304,13.455316
-2.426347,-1.889461,13.481415
-2.444373,-1.904068,13.526886
-2.463293,-1.797759,13.6204
-2.447684,-1.743339,13.653055
-2.414654,-1.711781,13.652882
-2.319526,-1.58581,13.668141
-2.193628,-1.466369,13.649073
-2.069623,-1.301261,13.628903
-1.870475,-1.05913,13.614379
-1.539006,-0.609161,13.738689
-1.267526,-0.028564,13.83126
-1.064635,0.294256,13.82416
-0.866205,0.515022,13.716941
-0.6921,0.560993,13.553723
-0.525053,0.538257,13.299879
-0.35094,0.397499,12.974087
-0.203588,0.214027,12.651473
-0.072496,0.09173,12.362394
-0.021018,-0.358406,11.944979
-1.143982,-3.733127,9.59608
-0.495109,-3.331484,9.27481
1.192313,1.235357,12.566719
1.438054,2.578393,12.958263
1.193483,0.446213,11.280825
1.195637,-0.414417,10.748868
1.617526,0.407989,11.360392
1.979381,0.852178,11.445989
1.939555,0.610311,11.085728
2.151637,0.602601,11.066351
2.319584,0.615791,10.955874
2.460639,0.548005,10.766391
2.509949,0.426008,10.610962
2.545272,0.425881,10.542503
2.564572,0.374426,10.468276
2.600863,0.334678,10.359651
2.599957,0.254409,10.221938
2.46685,0.223602,10.130173
2.426466,0.347707,10.050636
2.308296,0.374368,9.961752
2.097314,0.490469,9.850202
1.956873,0.518681,9.801233
1.742117,0.505322,9.721229
1.427023,0.557754,9.637468
1.376852,0.52137,9.670719
1.277037,0.497604,9.599735
1.127838,0.392418,9.582681
0.922417,0.374812,9.525999
0.77763,0.38144,9.555312
0.58586,0.392533,9.502851
0.622134,0.331921,9.424317
0.496772,0.713264,9.862422
0.574128,1.728126,10.56788
0.485231,1.22081,10.10336
0.128135,0.384723,9.446469
0.171624,0.494737,9.434269
0.378819,1.015565,9.778635
0.402444,1.139563,9.772724
0.271953,0.92959,9.598461
0.198309,0.769823,9.493203
0.241218,0.67067,9.392295
0.393849,0.550945,9.31514
0.206914,0.434737,9.265984
0.154896,0.294432,9.141913
0.166522,0.174327,9.048631
0.242304,0.122134,9.002629
0.267076,0.131908,9.017999
0.288325,0.113343,9.064956
0.271726,0.103296,9.096139
0.308903,0.092963,9.154122
0.375216,0.211542,9.287274
0.530912,0.587217,9.631736
2.447031,7.313004,13.584772
0.884228,1.27137,9.610836
0.059271,-1.472752,8.335134
0.228565,-0.069933,9.721425
0.341443,0.348333,9.988184
0.346871,-0.01771,9.295182
0.179565,-0.221563,9.44476
0.145203,-0.157329,9.846334
0.004813,-0.460509,9.528358
0.17662,-0.516076,9.42698
-0.125511,-0.286872,9.773063
-0.171638,-0.65439,9.529175
-0.065014,-0.655911,9.516575
-0.193691,-0.664232,9.467049
-0.227237,-0.78259,9.434518
-0.324146,-0.721074,9.38257
-0.340205,-0.870206,9.257143
-0.342663,-0.858947,9.229707
-0.362865,-0.946461,9.112363
-0.484751,-1.002237,9.009245
-0.513503,-0.959789,8.929337
-0.533434,-1.000797,8.864901
-0.596973,-1.057886,8.710857
-0.572139,-1.109933,8.592677
-0.643382,-1.088327,8.552687
-0.690022,-1.120798,8.459388
-0.736498,-1.193244,8.314624
-0.717823,-1.197411,8.212605
-0.799272,-1.161246,8.103404
-0.77669,-1.194526,7.980013
-0.768724,-1.188948,7.894923
-0.814018,-1.177635,7.826366
-0.724785,-1.15927,7.749074
-0.701914,-1.128964,7.701358
-0.621918,-1.05497,7.694082
-0.570138,-1.066184,7.609376
-0.476185,-1.01567,7.559737
-0.426543,-0.933652,7.518134
-0.323379,-0.861153,7.465461
-0.290551,-0.770964,7.47311
-0.258858,-0.752356,7.451281
-0.268101,-0.739467,7.431671
-0.268158,-0.653808,7.464247
-0.291109,-0.637506,7.457133
-0.308087,-0.572357,7.430465
-0.322961,-0.554782,7.413074
-0.351711,-0.488196,7.392803
-0.343187,-0.434383,7.372384
-0.341593,-0.367527,7.344597
-0.347825,-0.346274,7.321677
-0.322903,-0.33468,7.332112
-0.293751,-0.252534,7.353324
-0.297244,-0.294878,7.333361
-0.283645,-0.317459,7.333214
-0.273247,-0.318018,7.325076
-0.327093,-0.316137,7.327169
-0.311154,-0.330477,7.328138
-0.340098,-0.360595,7.305549
-0.345075,-0.4355,7.303943
-0.395207,-0.465537,7.298041
-0.379514,-0.483886,7.346763
-0.406769,-0.527647,7.362938
-0.392275,-0.591867,7.389746
-0.392537,-0.611197,7.472039
-0.403352,-0.619791,7.501478
-0.394946,-0.646143,7.560782
-0.343319,-0.700368,7.614223
-0.386089,-0.760906,7.708763
-0.378913,-0.739342,7.784771
-0.384291,-0.76831,7.834921
-0.41715,-0.844316,7.896359
-0.392156,-0.878221,7.969981
-0.439407,-0.891611,8.046934
-0.458447,-0.878976,8.123344
-0.418848,-0.907917,8.189743
-0.379419,-0.949725,8.259253
-0.358762,-0.96712,8.31671
-0.346371,-0.935013,8.402694
-0.299999,-0.948902,8.405388
-0.256397,-0.990963,8.431321
-0.168443,-1.006912,8.468544
-0.154608,-1.04004,8.483579
-0.178454,-1.05831,8.480405
-0.084636,-1.068124,8.520173
-0.089753,-1.123205,8.554421
-0.090411,-1.182773,8.62746
-0.070089,-1.153181,8.717527
-0.101939,-1.228349,8.801232
-0.131282,-1.277699,8.871178
-0.116911,-1.321825,8.979896
-0.170758,-1.325136,9.02989
-0.17324,-1.395585,9.098137
-0.176056,-1.413349,9.174643
-0.220618,-1.455652,9.278249
-0.267512,-1.460913,9.356626
-0.358472,-1.486955,9.479914
-0.394254,-1.467667,9.603677
-0.475615,-1.522488,9.71983
-0.521829,-1.584824,9.846303
-0.630877,-1.532325,10.006239
-0.666275,-1.534112,10.098459
-0.729003,-1.53932,10.243768
-0.736598,-1.531295,10.320355
-0.756859,-1.544348,10.393031
-0.799858,-1.481507,10.460172
-0.7739,-1.419424,10.514648
-0.73125,-1.423124,10.541141
-0.657827,-1.409583,10.606031
-0.643998,-1.341069,10.648172
-0.564228,-1.337775,10.676058
-0.524243,-1.313983,10.739086
-0.518429,-1.366005,10.751469
-0.493595,-1.387155,10.79871
-0.502899,-1.365686,10.84561
-0.501874,-1.40108,10.866058
-0.560587,-1.472017,10.9233
-0.632398,-1.49357,10.966418
-0.689917,-1.559732,11.026308
-0.797164,-1.57198,11.090982
-0.901638,-1.612181,11.151377
-0.962812,-1.690304,11.184375
-1.070326,-1.694612,11.237635
-1.144682,-1.682789,11.277991
-1.211,-1.684789,11.288976
-1.271606,-1.698063,11.331957
-1.360002,-1.710178,11.39125
-1.420629,-1.706654,11.448927
-1.506354,-1.700505,11.506827
-1.594865,-1.719416,11.538964
-1.752965,-1.76914,11.592035
-1.841313,-1.746272,11.625908
-1.911338,-1.765668,11.62177
-2.036745,-1.739198,11.641048
-2.130264,-1.821639,11.685848
-2.247594,-1.915602,11.751595
-2.297955,-1.88948,11.82514
-2.346713,-1.877141,11.907972
-2.363644,-1.951311,11.992921
-2.375161,-1.965087,12.082751
-2.382147,-1.962901,12.214916
-2.325049,-1.922112,12.359574
-2.26867,-1.920687,12.517311
-2.1722,-1.907592,12.668715
-2.06612,-1.852649,12.85239
-1.925117,-1.726499,13.008354
-1.778179,-1.622544,13.133265
-1.574,-1.506871,13.19948
-1.367055,-1.330563,13.329555
-1.219136,-1.097421,13.42307
-1.011947,-0.902751,13.433738
-0.756483,-0.614386,13.473135
-0.563451,-0.378268,13.558799
-0.411628,-0.126296,13.507608
-0.141752,0.211842,13.461148
0.090882,0.585193,13.435405
0.345234,0.855486,13.371328
0.523726,1.123861,13.332868
0.661964,1.388438,13.230639
0.845393,1.70285,13.103224
1.046528,2.011405,12.973034
1.193739,2.241431,12.801467
1.350639,2.463802,12.615327
1.456981,2.620127,12.483451
1.485877,2.793907,12.331821
1.566727,2.876391,12.180251
1.570216,2.93242,12.041434
1.528281,2.946906,11.856058
1.478467,2.964147,11.676383
1.386462,2.949806,11.485805
1.296817,2.866989,11.296468
1.213168,2.780893,11.083432
1.089243,2.676966,10.888434
0.999026,2.543362,10.667286
0.866686,2.371848,10.468549
0.743722,2.257371,10.381185
0.597089,2.051721,10.243496
0.491116,1.791751,10.069676
0.374797,1.621415,10.038362
0.236327,1.405063,9.992808
0.100638,1.136474,9.992487
-0.011338,0.949583,9.929284
-0.14364,0.808762,9.963247
-0.120687,0.589287,9.941194
-0.234998,0.445407,9.975824
-0.27072,0.308398,9.899351
-0.261724,0.219884,9.830771
-0.249563,0.178961,9.747838
-0.204432,0.104386,9.6053
-0.185137,0.087823,9.531252
-0.131721,0.120046,9.391367
-0.094866,0.120884,9.272392
0.001332,0.120135,9.111344
0.066451,0.176679,9.036719
0.111461,0.245444,8.929698
0.140455,0.258158,8.893067
0.22187,0.273247,8.894043
0.199807,0.245336,8.902325
0.242402,0.299716,8.970946
0.130371,0.309279,8.960929
0.165022,0.315205,8.960274
0.146916,0.443363,9.069529
0.08292,0.408364,9.081982
0.021323,0.449339,9.20356
-0.097914,0.488308,9.292624
-0.206109,0.456013,9.389711
-0.317057,0.454223,9.474573
-0.377749,0.501483,9.571197
-0.435441,0.524266,9.636997
-0.507741,0.507178,9.724038
-0.605171,0.469094,9.824797
-0.725056,0.431821,9.920564
-0.791432,0.473982,9.988323
-0.865858,0.452676,10.061868
-0.951068,0.360941,10.084429
-0.988966,0.184155,10.116836
-1.07178,0.171277,10.17099
-1.176313,-0.029715,10.204969
-1.630513,-1.264452,10.378408
-1.836591,-2.442688,10.183746
-1.552385,-2.512665,10.11732
-1.612806,-1.039225,10.23351
-1.685483,0.12829,10.450212
-1.441726,0.319599,10.358462
-1.394999,0.221255,10.327864
-1.295174,-0.005371,10.301318
-1.192973,0.120651,10.227456
-1.124066,0.150789,10.252849
-1.038281,0.24224,10.100588
-1.001285,0.23348,10.265663
-0.951402,-0.098165,10.082479
-0.879391,-0.404408,10.044231
-0.737233,-0.331377,9.909257
-0.662797,-0.052894,9.88732
-0.748202,-0.338558,9.791751
-0.590114,-0.814133,9.414217
-0.64908,-0.64985,9.267439
-0.527656,-0.459181,9.225098
-0.458497,-0.057523,9.147453
-0.370848,0.102479,8.960384
-0.33635,0.219529,8.801059
-0.298565,0.194337,8.654841
-0.290474,-0.012617,8.504619
-0.238594,-0.149209,8.404422
-0.337429,-0.118545,8.367899
-0.34988,-0.199687,8.206234
-0.276753,-0.268794,7.988391
-0.305012,-0.213489,7.869913
-0.305717,-0.286195,7.773718
-0.228573,-0.352485,7.662479
-0.164707,-0.368563,7.610639
-0.096923,-0.362149,7.5128
-0.02421,-0.326608,7.398831
0.006723,-0.322291,7.272156
0.031623,-0.261793,7.147599
0.082166,-0.286027,7.066806
0.09214,-0.243186,6.961952
0.107471,-0.215561,6.903645
0.142552,-0.226822,6.833315
0.123514,-0.21493,6.812666
0.117462,-0.220179,6.752185
0.08774,-0.241044,6.705107
0.038895,-0.302875,6.660073
0.000411,-0.399521,6.619341
-0.099401,-0.527342,6.591204
-0.199936,-0.588219,6.565322
-0.285036,-0.635357,6.513652
-0.376508,-0.648319,6.492656
-0.458017,-0.592197,6.523967
-0.562225,-0.408706,6.512704
-0.635822,-0.26209,6.512211
-0.70505,-0.100718,6.532084
-0.824613,-0.082356,6.56373
-0.889392,-0.042172,6.589341
-1.044661,-0.031583,6.70541
-1.13728,-0.015706,6.734182
-1.188212,0.081932,6.777767
-1.266766,0.027875,6.796732
-1.337496,0.110847,6.884297
-1.423109,0.10475,6.90733
-1.495006,0.070237,6.879713
-1.530734,0.050428,6.92741
-1.516171,0.143288,6.893341
-1.560866,0.22909,6.973836
-1.574569,0.114131,6.952414
-1.615685,-0.070586,6.969375
-1.638439,-0.018571,6.989106
-1.58816,-0.151439,7.056636
-1.60347,-0.187707,7.047668
-1.579154,-0.214008,7.079392
-1.550377,-0.305058,7.161138
-1.558941,-0.420788,7.146728
-1.581972,-0.53024,7.195836
-1.531602,-0.501129,7.259597
-1.495164,-0.430344,7.259065
-1.420482,-0.279298,7.346743
-1.431976,-0.304878,7.451903
-1.435097,-0.462668,7.489474
-1.458292,-0.632429,7.558123
-1.480451,-0.627747,7.680439
-1.513404,-0.635152,7.803948
-1.516143,-0.629374,7.884966
-1.547486,-0.628613,7.940196
-1.580002,-0.608549,8.071683
-1.618243,-0.601464,8.164148
-1.690627,-0.551134,8.235217
-1.651317,-0.556051,8.337121
-1.748054,-0.750556,8.445393
-1.712492,-0.866113,8.563449
-1.755668,-0.920119,8.744301
-1.752464,-0.973066,8.834734
-1.677703,-1.058013,8.91065
-1.583825,-1.100815,9.004217
-1.516214,-1.140963,9.096502
-1.469189,-1.210148,9.143456
-1.380404,-1.237758,9.185508
-1.335516,-1.298501,9.244424
-1.266856,-1.402456,9.273111
-1.179792,-1.423399,9.386198
-1.178682,-1.420319,9.421306
-1.135135,-1.527636,9.496033
-1.096344,-1.543606,9.579217
-1.110553,-1.540086,9.70882
-1.118573,-1.549858,9.789261
-1.118236,-1.502763,9.932936
-1.174091,-1.484682,10.046123
-1.149747,-1.439378,10.161534
-1.206664,-1.369798,10.359002
-1.202162,-1.271062,10.511747
-1.159241,-1.206387,10.613026
-1.129771,-1.121602,10.746865
-1.130406,-1.087101,10.895475
-1.099715,-1.121086,11.057351
-1.103828,-1.086928,11.213903
-1.073029,-1.096766,11.37677
-1.080155,-1.075636,11.556566
-1.04716,-1.043948,11.700597
-1.001472,-1.017928,11.829725
-0.945926,-0.982445,11.970263
-0.930461,-0.973998,12.075188
-0.914747,-1.000089,12.193342
-0.857541,-0.970558,12.245309
-0.830593,-0.967962,12.297259
-0.818483,-1.006034,12.380002
-0.792619,-1.068863,12.432426
-0.823299,-1.044077,12.495094
-0.842511,-1.067062,12.523668
-0.834945,-1.109308,12.561434
-0.845469,-1.18253,12.637053
-0.868841,-1.21496,12.715626
-0.911017,-1.206244,12.800592
-0.958497,-1.286092,12.848383
-0.980829,-1.303058,12.926857
-1.023375,-1.341338,13.029556
-1.103827,-1.375098,13.158014
-1.128118,-1.432732,13.299179
-1.164583,-1.454845,13.489023
-1.205036,-1.526729,13.65231
-1.232535,-1.549505,13.846041
-1.237753,-1.485778,14.030765
-1.192358,-1.460932,14.189887
-1.136632,-1.422833,14.330087
-1.037448,-1.312613,14.428283
-0.900319,-1.184497,14.506351
-0.673586,-1.078847,14.509509
-0.433828,-0.876728,14.498529
-0.151701,-0.657398,14.432124
0.1244,-0.443987,14.295442
0.599975,-0.141896,13.994601
0.979607,0.015741,13.898876
1.205653,0.126507,13.638765
1.449922,0.35401,13.360942
1.707309,0.566669,13.097527
1.939668,0.721988,12.855764
2.149835,0.741551,12.562371
2.293487,0.751731,12.312063
2.457933,0.869144,12.187888
2.4974,0.94156,12.012094
2.469164,0.816549,11.785085
2.47142,0.814775,11.681022
2.383975,0.80143,11.564052
2.3132,0.75568,11.480653
2.169674,0.680173,11.432322
2.018429,0.561265,11.392908
1.84565,0.429001,11.354373
1.697349,0.394729,11.31079
1.517481,0.303792,11.277861
1.360864,0.176433,11.238851
1.175268,0.095423,11.181595
1.000367,0.069059,11.171581
0.83592,0.034133,11.148062
0.707999,-0.015646,11.114233
0.600325,-0.037986,11.087313
0.568339,-0.045131,11.062984
0.503748,0.01978,11.054553
0.553899,0.064406,11.027433
0.561729,0.068162,10.981983
0.661354,0.113884,10.952046
0.759935,0.201668,10.904112
0.895562,0.281687,10.866525
0.955936,0.372427,10.816957
1.12357,0.40711,10.726789
1.228868,0.457859,10.638027
1.310308,0.608779,10.606351
1.448087,0.638598,10.4919
1.56324,0.65455,10.436895
1.595283,0.691242,10.366214
1.684094,0.741506,10.348966
1.705512,0.770056,10.286275
1.748785,0.77072,10.254287
1.78951,0.761322,10.201542
1.704105,0.777356,10.217011
1.7276,0.780747,10.171366
1.680568,0.749257,10.198051
1.57547,0.732623,10.210087
1.503919,0.66206,10.1981
1.499802,0.63438,10.241412
1.388277,0.66536,10.345501
1.285541,0.615522,10.353724
1.250294,0.557299,10.393956
1.248663,0.560494,10.486185
1.130025,0.60479,10.62426
1.082332,0.505162,10.591871
1.086449,0.511947,10.703259
1.018592,0.518489,10.781411
0.985621,0.488706,10.840309
0.981712,0.448374,10.735475
1.009994,0.465455,10.759135
0.965169,0.404873,10.722508
0.963249,0.366667,10.703938
0.939471,0.436004,10.715703
0.943127,0.321395,10.607163
0.913655,0.283233,10.547117
0.863644,0.265995,10.463507
0.861972,0.256603,10.41216
0.799191,0.223823,10.378514
0.767966,0.141081,10.275249
0.739895,0.075635,10.180734
0.684206,0.05072,10.066907
0.649152,0.009997,9.929618
0.657931,-0.069661,9.754638
0.579598,-0.102212,9.646727
0.523796,-0.14077,9.517527
0.515886,-0.219228,9.345909
0.434161,-0.248176,9.223096
0.39897,-0.30951,9.048428
0.340823,-0.372544,8.92543
0.252423,-0.380023,8.803497
0.237608,-0.449825,8.616529
0.183264,-0.476741,8.500055
0.120988,-0.537662,8.328774
0.1189,-0.571348,8.201352
0.059262,-0.570161,8.075215
0.055806,-0.596211,7.93394
0.07327,-0.665115,7.810958
0.058153,-0.686191,7.685752
0.052616,-0.65849,7.571856
0.088639,-0.686406,7.443904
0.072143,-0.694924,7.355314
0.0737,-0.713141,7.257282
0.048311,-0.710935,7.152136
0.053071,-0.6462,7.083715
0.073522,-0.61791,6.984282
0.068065,-0.653314,6.922397
0.045006,-0.63026,6.8624
0.041009,-0.607504,6.755076
0.007873,-0.522916,6.698753
0.035054,-0.502389,6.651562
-0.000424,-0.52053,6.590187
-0.029987,-0.484129,6.561321
-0.084715,-0.393655,6.599606
-0.105657,-0.361296,6.556532
-0.117549,-0.405868,6.539672
-0.165332,-0.335386,6.547353
-0.154127,-0.291532,6.543434
-0.181257,-0.260319,6.565284
-0.239895,-0.236419,6.591901
-0.243687,-0.263772,6.548005
-0.299119,-0.224934,6.596986
-0.302548,-0.172747,6.612907
-0.326143,-0.147292,6.639889
-0.319019,-0.137795,6.682043
-0.337175,-0.164106,6.723927
-0.353668,-0.115649,6.747625
-0.335314,-0.117489,6.779671
-0.361115,-0.139696,6.801386
-0.332806,-0.163817,6.847925
-0.317791,-0.176653,6.884713
-0.365058,-0.134331,6.957483
-0.348735,-0.197126,6.94379
-0.338764,-0.227,7.038914
-0.340146,-0.239841,7.068882
-0.29899,-0.255217,7.1411
-0.282826,-0.27068,7.21408
-0.275176,-0.320189,7.260584
-0.252842,-0.428266,7.267503
-0.262217,-0.464428,7.324882
-0.25082,-0.489697,7.388322
-0.246764,-0.58966,7.391088
-0.226464,-0.640012,7.451925
-0.204322,-0.676377,7.529114
-0.237406,-0.721604,7.599299
-0.186179,-0.797406,7.664245
-0.224495,-0.827593,7.735671
-0.229934,-0.935015,7.828755
-0.224566,-0.929325,7.895277
-0.174878,-0.944812,7.966537
-0.206832,-1.002141,8.072699
-0.18737,-1.031909,8.156548
-0.15029,-1.054746,8.23799
-0.104443,-1.073961,8.304676
-0.107394,-1.076598,8.423082
-0.076248,-1.087079,8.48269
-0.06102,-1.076198,8.593992
0.007899,-1.081778,8.646139
0.018057,-1.098998,8.796327
0.010054,-1.129897,8.813418
0.016092,-1.112234,8.950883
-0.021231,-1.096077,9.043493
-0.002546,-1.158196,9.104311
-0.044034,-1.150316,9.1891
-0.104942,-1.173649,9.295794
-0.151842,-1.214342,9.363484
-0.228738,-1.193311,9.48673
-0.288868,-1.210927,9.592397
-0.339296,-1.244474,9.733349
-0.398757,-1.208846,9.865158
-0.463618,-1.196992,9.990006
-0.50618,-1.191001,10.13287
-0.567173,-1.161152,10.282977
-0.610339,-1.201048,10.396087
-0.657752,-1.171173,10.542624
-0.687365,-1.134091,10.691955
-0.678888,-1.111982,10.804762
-0.69424,-1.168047,10.926782
-0.745007,-1.154788,11.048741
-0.711445,-1.136328,11.119727
-0.657684,-1.112629,11.211212
-0.587259,-1.14377,11.265316
-0.505956,-1.175605,11.328145
-0.427931,-1.125224,11.397319
-0.337968,-1.152282,11.417084
-0.281452,-1.144764,11.425599
-0.179827,-1.157273,11.43311
-0.149176,-1.197096,11.431155
-0.10661,-1.202787,11.411462
-0.071671,-1.190358,11.430128
-0.065322,-1.219613,11.436797
-0.057851,-1.259647,11.422174
-0.036468,-1.287665,11.454023
-0.020246,-1.271798,11.485987
-0.032183,-1.322013,11.517348
-0.09175,-1.354818,11.514736
-0.134083,-1.396229,11.513742
-0.175669,-1.357004,11.570749
-0.264021,-1.356641,11.583092
-0.327567,-1.389582,11.562092
-0.355916,-1.382174,11.622618
-0.436995,-1.339861,11.647085
-0.467571,-1.341334,11.670658
-0.538,-1.324825,11.718032
-0.604406,-1.329144,11.760285
-0.678483,-1.321164,11.839398
-0.762944,-1.291106,11.846643
-0.806508,-1.257884,11.900062
-0.866152,-1.273142,11.90469
-0.971623,-1.266834,11.97357
-1.040938,-1.226095,12.025652
-1.078173,-1.181594,12.075452
-1.145855,-1.188404,12.144691
-1.180082,-1.191285,12.145591
-1.188282,-1.139344,12.209041
-1.175458,-1.075598,12.258463
-1.145732,-1.043608,12.316105
-1.098984,-1.039471,12.322082
-1.077877,-1.003205,12.374027
-1.008139,-0.94041,12.390022
-0.950078,-0.925408,12.350252
-0.860721,-0.902959,12.361773
-0.78959,-0.856739,12.32124
-0.755524,-0.825072,12.275207
-0.686835,-0.754575,12.242873
-0.601959,-0.727558,12.211873
-0.546698,-0.672435,12.163841
-0.485549,-0.619591,12.129811
-0.440366,-0.491899,12.08822
-0.336184,-0.442144,12.018743
-0.247806,-0.369252,11.959279
-0.176152,-0.266084,11.869605
-0.053493,-0.149167,11.763546
0.059114,0.00929,11.638848
0.205161,0.128483,11.497376
0.291436,0.193631,11.353122
0.38677,0.356212,11.230013
0.475257,0.472634,11.083347
0.542649,0.569646,10.917461
0.584848,0.658454,10.723107
0.624979,0.732427,10.555573
0.632503,0.834,10.34935
0.652679,0.942452,10.178947
0.62752,0.985391,9.961357
0.6208,1.013657,9.803018
0.581765,1.090107,9.662078
0.539341,1.132386,9.514835
0.499737,1.165732,9.392765
0.429978,1.13893,9.307825
0.351511,1.138161,9.201476
0.274076,1.165521,9.140044
0.169891,1.144236,9.102022
0.100882,1.089324,9.084808
-0.045764,1.041329,9.097499
-0.159917,0.989153,9.124192
-0.283763,1.031114,9.180995
-0.374647,1.014281,9.269043
-0.460275,0.94532,9.335028
-0.56792,0.925568,9.420466
-0.603993,0.926291,9.496473
-0.664821,0.969584,9.594951
-0.675311,0.944354,9.632048
-0.717289,0.926114,9.735704
-0.70688,0.960924,9.760202
-0.7149,1.028873,9.805383
-0.6299,1.097442,9.801312
-0.592523,1.125556,9.857712
-0.504742,1.181608,9.881104
-0.440564,1.292432,9.972566
-0.363424,1.386257,10.052615
-0.292174,1.434279,10.121314
-0.211399,1.477425,10.190026
-0.079525,1.568491,10.260564
-0.037354,1.646745,10.361369
0.031545,1.672409,10.417839
0.097354,1.699827,10.53903
0.111681,1.687028,10.654643
0.073245,1.70025,10.766603
0.061885,1.650186,10.823719
0.074591,1.597528,10.952351
0.067405,1.633607,11.052308
0.038554,1.663618,11.105525
-0.035108,1.594696,11.178135
-0.059087,1.522723,11.306849
-0.08911,1.447576,11.437325
-0.065793,1.329434,11.502685
-0.071378,1.259849,11.624711
-0.06355,1.194662,11.700675
0.000273,1.094406,11.712162
0.035321,1.013953,11.736925
0.123238,0.972159,11.768902
0.205455,0.824419,11.730143
0.209114,0.664451,11.682591
0.266105,0.561909,11.682407
0.272972,0.509516,11.688675
0.269619,0.58818,11.662412
0.285831,0.694492,11.634603
0.313395,0.619981,11.616796
0.321637,0.466643,11.54206
0.356224,0.295828,11.442323
0.408536,0.225719,11.386688
0.363501,0.247885,11.275388
0.286487,0.260175,11.222065
0.334951,0.15098,11.122551
0.519254,-0.642304,10.944868
0.266309,-0.527055,10.602888
0.194784,-0.260559,10.71075
0.14546,-0.211049,10.535775
0.027592,-0.274552,10.318795
-0.0626,-0.328074,10.121042
-0.156097,-0.356095,9.964651
-0.194697,-0.394864,9.839592
-0.298227,-0.391311,9.646494
-0.361508,-0.392777,9.516231
-0.362858,-0.408474,9.306605
-0.413416,-0.437142,9.130522
-0.423444,-0.441138,8.960898
-0.428259,-0.391582,8.80004
-0.454911,-0.387896,8.637777
-0.438185,-0.417707,8.472688
-0.444357,-0.445999,8.314064
-0.48618,-0.410195,8.171979
-0.498615,-0.41539,7.993357
-0.499795,-0.392526,7.818579
-0.505406,-0.418767,7.654016
-0.543055,-0.441291,7.49751
-0.554851,-0.416579,7.358303
-0.588232,-0.391987,7.19754
-0.595559,-0.414359,7.058599
-0.577826,-0.440595,6.918824
-0.594645,-0.413466,6.823024
-0.601757,-0.364429,6.701359
-0.638435,-0.403278,6.577211
-0.663555,-0.368932,6.452199
-0.659329,-0.393786,6.370143
-0.69898,-0.350684,6.319914
-0.700239,-0.328835,6.272391
-0.741529,-0.366584,6.193344
-0.813932,-0.351956,6.179401
-0.804096,-0.306222,6.130653
-0.823217,-0.297451,6.109529
-0.865488,-0.304659,6.065697
-0.866966,-0.281098,6.033325
-0.839665,-0.259995,6.052116
-0.836155,-0.183468,6.072309
-0.856702,-0.179073,6.054702
-0.872266,-0.186478,6.006157
-0.870773,-0.132726,6.014519
-0.840221,-0.084735,5.973158
-0.823265,-0.077448,5.924486
-0.788592,-0.004955,5.948873
-0.792697,0.008486,5.922234
-0.807979,0.044073,5.970313
-0.827013,0.093781,5.986032
-0.850146,0.073862,5.982128
-0.855231,0.070332,6.023802
-0.872443,0.057222,6.065759
-0.88702,0.046751,6.118882
-0.917143,0.059891,6.17906
-0.994392,0.027758,6.229934
-0.994377,-0.019329,6.27855
-1.141828,-0.018157,6.375414
-1.144427,-0.020089,6.41831
-1.242565,-0.067177,6.503961
-1.317457,-0.128418,6.601765
-1.441185,-0.129852,6.691533
-1.449476,-0.121751,6.736619
-1.508615,-0.130397,6.817517
-1.560676,-0.19929,6.868681
-1.594539,-0.214077,6.947995
-1.601391,-0.193097,6.989847
-1.580608,-0.190376,7.03949
-1.639465,-0.215795,7.093715
-1.624141,-0.268101,7.205438
-1.668089,-0.27257,7.267932
-1.634708,-0.292407,7.362707
-1.628035,-0.287912,7.46303
-1.627236,-0.26426,7.587895
-1.642625,-0.280458,7.685553
-1.607229,-0.265426,7.809633
-1.582968,-0.262089,7.940295
-1.542215,-0.282204,8.075205
-1.473092,-0.284135,8.25545
-1.53045,-0.26316,8.401533
-1.48443,-0.305312,8.551936
-1.476007,-0.285273,8.705009
-1.501959,-0.299646,8.887817
-1.523976,-0.345791,9.020842
-1.556285,-0.348538,9.214775
-1.574868,-0.327575,9.348012
-1.578026,-0.359437,9.498876
-1.578625,-0.397498,9.647656
-1.606266,-0.389663,9.787263
-1.584265,-0.393682,9.953445
-1.490085,-0.419642,10.069731
-1.464061,-0.506958,10.17297
-1.37728,-0.533208,10.265255
-1.349889,-0.502864,10.362365
-1.331458,-0.610803,10.398554
-1.249836,-0.649032,10.464022
-1.232268,-0.75929,10.54768
-1.269565,-0.842028,10.62365
-1.245407,-0.868277,10.71553
-1.234325,-0.985521,10.816801
-1.291496,-1.043933,10.93199
-1.312849,-1.174384,11.012498
-1.375609,-1.199229,11.102237
-1.319865,-1.229149,11.170398
-1.325195,-1.312417,11.23693
-1.335323,-1.345587,11.346149
-1.333218,-1.376521,11.420213
-1.349089,-1.426515,11.543016
-1.415575,-1.461379,11.649831
-1.396384,-1.558679,11.769252
-1.434447,-1.562228,11.93877
-1.45828,-1.582005,12.063947
-1.459846,-1.60021,12.180386
-1.435907,-1.596306,12.331089
-1.48859,-1.559128,12.425326
-1.43011,-1.515897,12.536356
-1.386267,-1.440934,12.647808
-1.326002,-1.427286,12.693911
-1.233817,-1.386482,12.784164
-1.236068,-1.313646,12.864805
-1.185809,-1.240869,12.930619
-1.120788,-1.197272,12.98469
-1.048907,-1.159803,13.035044
-1.020872,-1.14872,13.107749
-1.013713,-1.134881,13.115539
-0.992359,-1.13228,13.142634
-1.007901,-1.140233,13.105517
-0.99742,-1.167912,13.06919
-1.017048,-1.143047,13.025405
-1.016628,-1.119168,12.977017
-1.023874,-1.159706,12.929953
-1.046855,-1.180129,12.852757
-1.083682,-1.182185,12.786602
-1.132643,-1.21689,12.743333
-1.197163,-1.232018,12.75965
-1.263541,-1.338693,12.710659
-1.347941,-1.439262,12.670248
-1.465767,-1.424181,12.657532
-1.589956,-1.507564,12.590847
-1.707308,-1.592182,12.557083
-1.825893,-1.60199,12.511311
-1.902504,-1.613162,12.501298
-2.018046,-1.620603,12.475826
-2.073467,-1.599185,12.480814
-2.067252,-1.5822,12.520072
-2.085113,-1.520945,12.565304
-2.007699,-1.459538,12.625568
-1.890133,-1.336122,12.663428
-1.742901,-1.276535,12.691797
-1.554472,-1.157486,12.766279
-1.340307,-1.039917,12.81214
-1.102012,-0.853135,12.833492
-0.790011,-0.680974,12.819824
-0.501747,-0.525474,12.787466
-0.111374,-0.42196,12.825429
0.045095,-0.217802,12.616009
0.229736,0.092065,12.663706
1.012337,0.232242,12.547521
0.650382,0.17269,12.585845
1.482133,0.758828,12.101048
2.011818,0.439761,11.975892
2.000118,0.959042,12.440318
2.106848,0.742377,12.111674
2.229388,1.108555,11.975707
2.561393,1.443628,11.767754
3.103318,1.358871,11.504803
3.257697,1.114124,11.360566
3.382073,1.2386,11.47448
3.491102,1.377184,11.62575
3.403405,1.233848,11.539777
3.529066,1.264556,11.401888
3.72425,1.300316,11.234059
3.746154,1.23357,11.120575
3.78218,1.180789,10.984878
3.860352,1.153473,10.855939
3.892682,1.045264,10.76422
3.829957,0.942977,10.646758
3.827248,0.929423,10.510772
3.759252,0.927442,10.37529
3.670152,0.804211,10.209559
3.504824,0.673016,10.097465
3.412339,0.594752,9.943653
3.275847,0.610153,9.87694
3.170766,0.521309,9.759766
3.039917,0.53238,9.749001
2.803765,0.367121,9.719747
2.629329,0.289736,9.694244
2.516413,0.289,9.692774
2.339984,0.231057,9.621496
2.242316,0.192291,9.574184
2.097519,0.213666,9.547663
2.005384,0.269575,9.473724
1.82632,0.302688,9.471363
1.681743,0.287562,9.43346
1.580941,0.289185,9.38608
1.408194,0.393284,9.433635
1.321614,0.42956,9.339622
1.251776,0.398934,9.325333
1.06989,0.520899,9.31557
0.971008,0.575579,9.29232
0.888554,0.637018,9.213508
0.834452,0.655217,9.24255
0.75419,0.730112,9.273679
0.690135,0.751875,9.259078
0.615498,0.678887,9.283339
0.526641,0.744599,9.348932
0.566816,0.882839,9.4751
0.37927,0.712242,9.35148
0.338821,0.719592,9.37431
0.284961,0.724485,9.465386
0.175832,0.711405,9.469624
0.096355,0.611303,9.449429
0.040901,0.570198,9.522818
-0.056429,0.535473,9.541696
-0.10883,0.449386,9.552715
-0.153265,0.403002,9.623977
-0.221735,0.291473,9.646234
-0.287767,0.152471,9.684748
-0.296585,0.02902,9.725941
-0.277857,-0.255681,9.83377
0.121636,-1.143476,9.844027
0.073618,-1.608382,9.58994
-0.293048,-0.961784,9.747714
-0.676446,-0.662403,9.872313
-1.411592,-2.457361,10.22037
-0.711934,-4.428209,9.404188
-0.584783,-3.28511,9.597652
-0.469864,-1.567852,9.970309
-0.468679,-1.14314,9.801649
-0.490226,-0.415004,9.757904
-0.418798,0.024574,9.868981
-0.356703,-0.138851,9.7429
-0.303994,-0.37735,9.622784
-0.338251,-0.574824,9.604926
-0.353204,-0.771922,9.600823
-0.355996,-1.199287,9.508432
-0.320197,-1.28269,9.355404
-0.236105,-1.105077,9.361846
-0.093078,-0.819341,9.114709
0.079849,-0.234871,9.234142
0.055565,-0.242899,9.037297
0.133622,-0.46691,8.799537
0.207178,-0.493594,8.717249
0.233885,-0.632787,8.656063
0.23122,-0.846712,8.442428
0.22927,-0.925195,8.314464
0.289129,-0.838264,8.155112
0.336525,-0.762058,8.035517
0.366552,-0.663501,7.935562
0.375293,-0.677784,7.75867
0.394088,-0.613103,7.683669
0.433159,-0.598521,7.630949
0.411497,-0.565534,7.593405
0.391271,-0.622008,7.573133
0.408519,-0.570489,7.535948
0.37484,-0.542644,7.438936
0.455665,-0.536336,7.400717
0.3685,-0.471237,7.402494
0.329907,-0.496447,7.36284
0.277484,-0.560518,7.357507
0.121104,-0.639195,7.355854
0.135363,-0.636078,7.359881
0.036561,-0.545255,7.401187
0.021556,-0.46853,7.381535
-0.050989,-0.411561,7.348105
-0.041967,-0.402731,7.365432
-0.136061,-0.306678,7.348583
-0.089851,-0.250622,7.352713
-0.189285,-0.15176,7.354578
-0.146421,-0.165884,7.358919
-0.196934,-0.13049,7.403844
-0.224802,-0.049653,7.474601
-0.275217,-0.060089,7.448011
-0.262597,-0.048397,7.539845
-0.333053,-0.044164,7.544147
-0.296493,-0.03724,7.561934
-0.288624,-0.007007,7.645468
-0.330616,-0.013733,7.71539
-0.357713,-0.086217,7.756426
-0.369326,-0.100394,7.800748
-0.333101,-0.075994,7.841469
-0.3438,-0.145438,7.829961
-0.327465,-0.187382,7.842772
-0.316271,-0.23899,7.825851
-0.308462,-0.277336,7.794575
-0.258621,-0.321215,7.79771
-0.177973,-0.406613,7.781641
-0.145848,-0.506822,7.794076
-0.039458,-0.844378,7.786497
-0.05279,-1.012283,7.667702
-0.110074,-0.821252,7.705295
-0.151676,-0.59365,7.743998
-0.203479,-0.611711,7.727054
-0.259426,-0.691494,7.716505
-0.255624,-0.832816,7.763141
-0.329047,-1.174972,7.807754
-0.556169,-2.30314,7.809232
-0.48759,-2.665931,7.71981
-0.461719,-2.261472,7.817523
-0.328559,-1.648282,7.888634
-0.315996,-1.134996,7.893459
-0.232875,-0.735518,7.957669
-0.235706,-0.518089,8.088226
-0.222387,-0.445028,8.110732
-0.236405,-0.409257,8.285129
-0.260506,-0.418442,8.459425
-0.324769,-0.577871,8.620088
-0.374799,-0.646684,8.762802
-0.419434,-0.773367,8.935842
-0.521766,-1.065272,9.053436
-0.56971,-1.227374,9.165098
-0.604182,-1.196414,9.265074
-0.596954,-1.149241,9.402353
-0.598547,-1.154924,9.465782
-0.587744,-1.16095,9.53775
-0.599905,-1.145149,9.624861
-0.575868,-1.129035,9.71875
-0.563527,-1.127479,9.82855
-0.601284,-1.181458,9.89457
-0.577572,-1.145571,10.00265
-0.532316,-1.165734,10.080726
-0.467954,-1.159184,10.193053
-0.45359,-1.228688,10.303184
-0.437296,-1.234252,10.401762
-0.405268,-1.221482,10.50698
-0.333829,-1.241813,10.608439
-0.271046,-1.269449,10.724316
-0.253966,-1.285485,10.854576
-0.23336,-1.3066,10.957713
-0.198157,-1.329789,11.070577
-0.153377,-1.357808,11.16633
-0.154147,-1.429764,11.247606
-0.155424,-1.454002,11.357575
-0.177634,-1.459052,11.493029
-0.137632,-1.477613,11.613191
-0.160988,-1.544582,11.740355
-0.225173,-1.58912,11.853817
-0.26991,-1.605436,11.964717
-0.28404,-1.608193,12.051856
-0.322812,-1.661308,12.135535
-0.366819,-1.686457,12.19864
-0.396183,-1.667847,12.249274
-0.429974,-1.649376,12.310659
-0.431441,-1.642352,12.357999
-0.419482,-1.702745,12.399177
-0.44861,-1.688559,12.500617
-0.459346,-1.670446,12.566937
-0.450973,-1.677479,12.640295
-0.46489,-1.672427,12.694885
-0.468583,-1.726214,12.771754
-0.537833,-1.728731,12.846895
-0.598618,-1.764408,12.89129
-0.573466,-1.792065,12.958751
-0.71107,-1.793792,13.008909
-0.759591,-1.923321,13.049161
-0.865152,-1.94773,13.116788
-0.896085,-1.957767,13.156126
-0.942769,-1.975784,13.119102
-0.928355,-2.02179,13.137708
-0.948402,-1.987014,13.156552
-0.891622,-1.964144,13.114077
-0.84385,-1.904816,13.132529
-0.809838,-1.920797,13.095739
-0.752235,-1.88274,13.066719
-0.672835,-1.758667,13.039883
-0.612616,-1.678397,12.979318
-0.512458,-1.600551,12.866314
-0.451917,-1.508369,12.826202
-0.41109,-1.439335,12.688997
-0.406035,-1.30883,12.580801
-0.333602,-1.177124,12.5177
-0.293565,-1.00835,12.387895
-0.233569,-0.90021,12.227273
-0.200545,-0.72324,12.065287
-0.105067,-0.562485,11.904132
-0.045648,-0.389588,11.696458
0.038535,-0.252111,11.488371
0.07244,-0.062372,11.348249
0.193183,0.120097,11.228888
0.252014,0.255635,11.081519
0.29282,0.37604,10.948146
0.389588,0.508836,10.831803
0.408111,0.68415,10.744674
0.474463,0.82901,10.600518
0.530918,0.946235,10.521921
0.552681,1.063106,10.436755
0.569696,1.171514,10.351698
0.584054,1.283943,10.246888
0.557316,1.352714,10.152332
0.571084,1.445685,10.06887
0.552786,1.567994,10.031916
0.503075,1.689044,9.979418
0.481981,1.752041,9.933835
0.442656,1.799177,9.899136
0.382367,1.814689,9.832866
0.337614,1.894366,9.836649
0.304122,1.942544,9.814627
0.314533,1.976479,9.783977
0.302948,2.027048,9.768371
0.303448,2.074441,9.760458
0.319428,2.14094,9.766164
0.296796,2.19318,9.732083
0.334309,2.178409,9.751396
0.28661,2.221565,9.736281
0.290046,2.251325,9.74944
0.20168,2.308339,9.773553
0.222668,2.311856,9.757153
0.16959,2.298048,9.825143
0.160007,2.299532,9.872337
0.09807,2.345808,9.947868
0.089024,2.336529,9.970605
0.100517,2.337484,10.012677
0.041262,2.347233,10.07167
0.04282,2.358047,10.144537
0.047045,2.324617,10.21047
0.051444,2.294145,10.261604
0.064549,2.233173,10.310185
0.060704,2.19282,10.397618
0.086661,2.164802,10.458369
0.134585,2.117803,10.513971
0.232757,1.998317,10.617481
0.113959,1.934251,10.628254
0.271746,1.843106,10.691949
0.314265,1.70465,10.707708
0.625834,1.265292,10.827655
0.715922,0.462393,10.564281
0.419243,0.734178,10.530299
0.430828,1.002533,10.69724
0.016022,0.056076,10.93748
-0.263186,-2.322376,10.493996
0.008062,-3.039915,10.383267
0.278843,-2.657563,10.282949
-0.205757,-0.914067,10.336922
-0.10091,0.018807,10.407335
-0.031443,0.763282,10.259543
0.15103,1.430776,10.233775
0.223633,1.374167,10.139634
0.237308,1.306003,10.09608
0.389855,1.094987,10.135802
0.43347,1.00798,10.063221
0.392281,0.807582,10.007578
0.245856,0.735677,9.979314
0.189629,0.555118,9.889055
0.121104,0.351617,9.73539
0.129343,0.216694,9.624767
0.208593,0.250819,9.530709
0.135485,0.189601,9.418454
0.023762,-0.027153,9.342901
0.017261,-0.197943,9.268372
-0.052346,-0.216531,9.148258
0.012823,-0.125806,8.928037
0.107484,-0.015944,8.837407
0.079246,0.070862,8.759782
-0.029729,0.015683,8.619078
-0.058023,-0.102298,8.408308
-0.042592,-0.287038,8.265224
-0.120302,-0.513116,8.138645
-0.261733,-0.689031,8.032422
-0.357711,-0.755905,7.961837
-0.417615,-0.817316,7.904148
-0.519965,-0.87494,7.861789
-0.557661,-0.937331,7.800288
-0.588755,-0.959535,7.738843
-0.602909,-0.967901,7.690575
-0.690357,-0.993397,7.649218
-0.722041,-0.972532,7.596444
-0.776464,-0.934449,7.523786
-0.80995,-0.883684,7.457386
-0.818982,-0.809209,7.397433
-0.864993,-0.821152,7.365044
-0.967879,-0.714223,7.307813
-0.996382,-0.649493,7.266799
-1.0099,-0.579855,7.227536
-1.048547,-0.544101,7.189433
-1.057158,-0.564627,7.102608
-1.09875,-0.445346,7.111023
-1.100697,-0.370467,7.07712
-1.07083,-0.401128,7.009039
-1.09035,-0.367439,7.020235
-1.115133,-0.311723,6.969249
-1.064429,-0.280273,6.934973
-1.087821,-0.252119,6.908789
-1.076402,-0.273494,6.884262
-1.053239,-0.273333,6.855956
-1.028428,-0.34153,6.885769
-1.012713,-0.466644,6.8339
-1.005384,-0.515626,6.747396
-1.050806,-0.253446,6.823884
-1.044589,-0.092306,6.819219
-1.035176,-0.103595,6.835481
-1.109703,-0.142182,6.837527
-1.22852,-0.347299,6.87609
-1.317571,-0.670945,6.860998
-1.273253,-0.700901,6.832264
-1.228484,-0.675888,6.858821
-1.228874,-0.674912,6.910371
-1.241151,-0.541635,6.91843
-1.212522,-0.387144,6.949754
-1.16865,-0.263871,6.970472
-1.202828,-0.205006,6.984968
-1.181296,-0.167594,7.024556
-1.197666,-0.071421,7.109388
-1.212692,0.009751,7.176025
-1.208131,0.058043,7.208919
-1.216521,0.114562,7.296202
-1.310868,0.004736,7.329725
-1.311469,-0.003503,7.343084
-1.297942,0.075317,7.375259
-1.265211,0.138458,7.409703
-1.323709,-0.001388,7.454152
-1.38592,-0.252861,7.465796
-1.289127,-0.112338,7.486397
-1.200769,-0.015409,7.539282
-1.06987,0.218805,7.603482
-1.078068,0.217121,7.677772
-1.027476,0.164856,7.667549
-1.04958,0.046821,7.721585
-1.117499,-0.096095,7.764655
-1.154668,-0.300765,7.789826
-1.147269,-0.292784,7.896482
-1.070927,-0.26275,8.011732
-1.035301,-0.335815,8.030345
-0.993846,-0.438388,8.105198
-1.016718,-0.471432,8.145565
-0.999812,-0.562978,8.189877
-0.983855,-0.596753,8.238753
-0.975616,-0.646229,8.282882
-0.979132,-0.707286,8.313174
-0.929094,-0.774671,8.407057
-0.946857,-0.781393,8.46983
-0.911838,-0.821448,8.512172
-0.883067,-0.891787,8.594553
-0.83954,-0.916223,8.686748
-0.832719,-0.925893,8.765143
-0.844073,-0.965891,8.859691
-0.897118,-1.029488,8.936185
-0.90016,-1.048074,9.044412
-0.948522,-1.075079,9.120125
-0.974213,-1.104871,9.227307
-1.024877,-1.143713,9.305406
-1.016174,-1.188865,9.426131
-1.072572,-1.174573,9.541253
-1.111857,-1.161411,9.674225
-1.172157,-1.185376,9.799772
-1.291095,-1.211422,9.911769
-1.400684,-1.234147,10.048104
