Gyr_X,Gyr_Y,Gyr_Z
0.017431,-0.003591,0.044031
0.023515,-0.002295,0.043594
0.020609,-0.002585,0.044622
0.022251,-0.005609,0.040703
0.023877,-0.000979,0.038851
0.023895,-0.002582,0.037744
0.025711,-0.00695,0.037452
0.023247,0.000387,0.036467
0.033318,0.003121,0.032046
0.030348,0.004602,0.02951
0.02952,0.006747,0.028347
0.030751,0.005455,0.032567
0.028623,0.005882,0.02868
0.032253,0.005995,0.032073
0.028674,0.011148,0.032509
0.029748,0.012609,0.029705
0.029502,0.017378,0.034703
0.030822,0.022218,0.034144
0.030261,0.023452,0.034415
0.024445,0.020636,0.03607
0.023622,0.017918,0.03817
0.021444,0.018726,0.04243
0.021093,0.023741,0.042517
0.021303,0.026862,0.043444
0.016405,0.01759,0.043578
0.02166,0.02808,0.046157
0.018605,0.028182,0.050391
0.022175,0.028571,0.050496
0.017074,0.025512,0.048646
0.007337,0.024519,0.052025
0.007876,0.026334,0.051899
0.010722,0.031831,0.050692
0.008801,0.031803,0.0547
0.00393,0.028283,0.05236
0.001498,0.025458,0.056451
0.002132,0.028985,0.052189
0.00099,0.031514,0.057475
-0.002274,0.033001,0.056756
-0.005668,0.031245,0.055853
-0.005263,0.026523,0.057184
-0.007479,0.028966,0.058047
-0.009179,0.027499,0.054907
-0.011724,0.030083,0.059447
-0.0098,0.025625,0.05961
-0.01177,0.027087,0.060875
-0.010999,0.024029,0.060343
-0.008556,0.026179,0.060333
-0.011238,0.02697,0.06141
-0.013839,0.030994,0.063955
-0.01601,0.033868,0.067336
-0.014834,0.034141,0.06524
-0.021702,0.031488,0.069942
-0.018585,0.037875,0.07107
-0.018023,0.041129,0.071193
-0.018516,0.038437,0.072824
-0.015269,0.039022,0.073083
-0.020494,0.043576,0.072747
-0.015917,0.039686,0.072833
-0.016594,0.046229,0.076983
-0.012362,0.04339,0.074228
-0.014399,0.045452,0.075502
-0.010282,0.044236,0.072583
-0.012407,0.047684,0.076131
-0.012091,0.040317,0.07356
-0.009157,0.044828,0.071076
-0.01065,0.045366,0.072432
-0.002104,0.049331,0.070874
-0.003166,0.039285,0.068031
-0.010258,0.035948,0.069287
-0.008214,0.037142,0.066867
0.000422,0.035719,0.064532
-0.003217,0.035625,0.066224
-0.003803,0.034381,0.067296
-0.000277,0.027514,0.064953
0.001345,0.032217,0.061751
0.004888,0.030822,0.062359
8.6e-05,0.029623,0.062921
-0.001085,0.025842,0.060687
0.000136,0.023257,0.05985
0.004589,0.026505,0.062009
0.005337,0.030626,0.060467
0.004736,0.026716,0.063499
0.004189,0.028051,0.059574
0.006246,0.027285,0.059875
0.008514,0.03194,0.061622
0.00452,0.034151,0.061407
0.006679,0.040234,0.060692
0.009883,0.040212,0.065175
0.012321,0.037578,0.060567
0.01253,0.042281,0.062061
0.008696,0.041843,0.062115
0.014613,0.039899,0.060036
0.01578,0.040735,0.063468
0.014787,0.038441,0.064132
0.016247,0.040295,0.062
0.016961,0.037534,0.061061
0.016553,0.036573,0.062036
0.016051,0.036433,0.064642
0.0198,0.033727,0.060093
0.019253,0.034981,0.05896
0.015613,0.027844,0.062173
0.014106,0.025905,0.062575
0.016112,0.025978,0.063401
0.013573,0.02114,0.064639
0.013079,0.019944,0.065076
0.010843,0.014011,0.065092
0.011841,0.017513,0.066205
0.015598,0.013689,0.070087
0.012673,0.011901,0.071236
0.010002,0.010345,0.07286
0.005645,0.014064,0.076307
0.007773,0.016532,0.076186
0.009412,0.015496,0.078165
0.009788,0.01617,0.078811
0.003303,0.014859,0.080825
0.001585,0.022539,0.078306
0.005395,0.017058,0.080616
7.4e-05,0.023911,0.081306
0.002287,0.024106,0.085547
0.000843,0.024261,0.086614
-0.000864,0.022628,0.090017
0.001272,0.015623,0.086451
-0.003773,0.018954,0.090008
-0.00225,0.021576,0.093339
0.002693,0.022643,0.09094
-0.003102,0.017307,0.090732
-0.00381,0.013574,0.09103
-0.001688,0.01036,0.092006
0.000464,0.010223,0.091646
-0.005829,0.007603,0.09144
-0.002059,0.007197,0.093249
-0.003991,0.006873,0.094176
-0.007424,0.000641,0.091556
-0.0058,-0.002594,0.092386
-0.00719,-0.003861,0.097056
-0.006518,-0.005092,0.095528
-0.002155,-0.010075,0.10001
-0.002685,-0.007476,0.099517
-0.005861,-0.006883,0.099266
-0.001879,-0.00401,0.097715
-0.005633,-0.007862,0.099307
-0.008351,-0.00819,0.098922
-0.004679,-0.005828,0.100852
-0.004375,-0.006367,0.097517
-0.001787,-0.009234,0.098415
-0.003447,-0.003666,0.097542
-0.002573,-0.007932,0.095116
-0.002566,-0.004598,0.094786
0.000332,-0.01006,0.093625
-0.004332,-0.007512,0.090962
0.000233,-0.008895,0.088812
0.000786,-0.008444,0.086641
-0.000253,-0.011837,0.084849
0.00312,-0.011736,0.084964
0.003526,-0.010651,0.078177
0.004154,-0.012259,0.075968
-0.000362,-0.013494,0.072571
0.004197,-0.017719,0.072715
0.001218,-0.020215,0.070072
0.003994,-0.023568,0.069786
0.006489,-0.019932,0.067659
0.001832,-0.019696,0.065494
0.007234,-0.023426,0.066646
-0.000422,-0.023122,0.063858
0.001084,-0.02369,0.064506
0.001334,-0.024703,0.06552
-0.000528,-0.026411,0.06211
-0.002487,-0.022973,0.062405
-0.003052,-0.019945,0.063194
0.000941,-0.017579,0.0638
-0.0003,-0.021979,0.06722
-0.004384,-0.016014,0.069202
-0.001742,-0.015394,0.064134
-0.002377,-0.022198,0.065608
0.000864,-0.014839,0.068029
-0.000866,-0.018527,0.066877
-0.002225,-0.01722,0.067342
-0.001611,-0.015029,0.065313
-0.002059,-0.014216,0.065619
-0.00471,-0.012679,0.070398
0.000552,-0.010794,0.067817
-0.003521,-0.012338,0.067785
-0.002281,-0.013009,0.06988
-0.00367,-0.012706,0.06795
0.000756,-0.013959,0.062443
-0.000194,-0.013557,0.065031
-0.002034,-0.012632,0.069871
0.002233,-0.01637,0.067172
-0.003304,-0.013766,0.064281
-0.0008,-0.012861,0.06664
-0.004096,-0.010686,0.065892
-0.001751,-0.008772,0.064086
-0.003597,-0.003818,0.067257
-0.003521,-0.010464,0.070956
-0.004874,-0.010595,0.067107
-0.003621,-0.008048,0.070291
-0.002226,-0.008628,0.070468
-0.005132,-0.008883,0.071896
-0.003745,-0.008833,0.07598
0.000335,-0.007321,0.077001
-0.002807,-0.011957,0.0786
-0.001347,-0.00907,0.081489
-0.001709,-0.012736,0.081602
0.002296,-0.01189,0.083265
0.003087,-0.015463,0.083903
0.004811,-0.013945,0.085906
0.004546,-0.016634,0.08925
0.009083,-0.014064,0.087751
0.009792,-0.012037,0.090172
0.009794,-0.011906,0.092643
0.010378,-0.015682,0.095006
0.012084,-0.011301,0.090653
0.013726,-0.013183,0.093149
0.012024,-0.013743,0.096684
0.016182,-0.009851,0.092337
0.013793,-0.004904,0.093093
0.015368,-0.005674,0.090059
0.016677,-0.005436,0.094686
0.017788,0.000791,0.094267
0.020938,-0.001535,0.092953
0.017267,0.003586,0.094316
0.017665,0.004377,0.092279
0.015842,0.004896,0.092933
0.017286,0.00991,0.091212
0.014059,0.00769,0.091641
0.01324,0.006614,0.095011
0.014635,0.015055,0.094832
0.013066,0.017408,0.092306
0.011738,0.015966,0.091375
0.008275,0.010436,0.092515
0.014152,0.013001,0.091117
0.016678,0.014233,0.092112
0.014902,0.01289,0.090589
0.014766,0.013099,0.094955
0.01119,0.006806,0.0915
0.013805,0.004516,0.089891
0.014245,0.006501,0.092613
0.019211,0.01099,0.094343
0.015519,0.007229,0.0914
0.01421,-0.003156,0.089436
0.01701,-0.002958,0.092488
0.017434,-0.001886,0.089026
0.016934,0.005624,0.090434
0.01547,0.00614,0.087882
0.018506,-0.000916,0.088089
0.019398,0.00108,0.084964
0.016541,-0.004983,0.083259
0.022521,-0.000289,0.082295
0.015748,-0.000347,0.083483
0.018828,-0.002177,0.08428
0.021908,-0.006287,0.083873
0.01941,-0.006182,0.081936
0.016353,-0.005639,0.085489
0.018682,-0.010563,0.0834
0.021722,-0.009181,0.080695
0.01946,-0.014603,0.083747
0.021254,-0.018412,0.080552
0.023497,-0.018741,0.0824
0.018705,-0.023766,0.084337
0.018794,-0.024284,0.082634
0.019082,-0.031202,0.083957
0.018459,-0.028981,0.08496
0.016145,-0.033146,0.085504
0.012384,-0.031787,0.085565
0.01192,-0.033428,0.084753
0.012506,-0.032988,0.08793
0.006566,-0.035448,0.087198
0.006492,-0.037031,0.091299
0.004711,-0.033391,0.087201
0.003161,-0.032878,0.091811
-0.000413,-0.030634,0.086995
0.003073,-0.028561,0.086833
-0.000151,-0.033577,0.087599
-0.001186,-0.025025,0.086371
-0.004566,-0.025851,0.087925
-0.005688,-0.025073,0.087062
-0.007086,-0.024253,0.088511
-0.009838,-0.020191,0.086867
-0.009626,-0.020762,0.083452
-0.007097,-0.016972,0.085369
-0.01435,-0.014697,0.085389
-0.014286,-0.017762,0.081878
-0.012219,-0.015822,0.085019
-0.01545,-0.015765,0.085159
-0.015028,-0.018819,0.087944
-0.014646,-0.019081,0.083298
-0.013518,-0.018093,0.083483
-0.01979,-0.018139,0.081668
-0.017339,-0.018074,0.08039
-0.014944,-0.023404,0.084237
-0.017318,-0.022663,0.082495
-0.017238,-0.024034,0.081088
-0.016709,-0.024003,0.083881
-0.0186,-0.024858,0.085678
-0.016555,-0.025377,0.0867
-0.020355,-0.026257,0.086199
-0.023027,-0.030053,0.090062
-0.022452,-0.028071,0.088147
-0.026159,-0.030097,0.091349
-0.02729,-0.030904,0.091399
-0.0324,-0.028574,0.094027
-0.037052,-0.031903,0.093778
-0.042059,-0.029925,0.093726
-0.043602,-0.027956,0.098247
-0.045283,-0.029732,0.095294
-0.05037,-0.028224,0.098401
-0.050135,-0.025885,0.098922
-0.052594,-0.02725,0.101393
-0.054923,-0.031312,0.097016
-0.060599,-0.027813,0.102306
-0.063343,-0.031362,0.103676
-0.067842,-0.027935,0.100677
-0.06721,-0.02557,0.102701
-0.07301,-0.033484,0.104367
-0.075413,-0.029099,0.105708
-0.076371,-0.028107,0.10413
-0.077765,-0.030312,0.105082
-0.08146,-0.03304,0.106906
-0.082138,-0.033249,0.108577
-0.082116,-0.034066,0.108079
-0.085264,-0.029707,0.108496
-0.084716,-0.035326,0.109562
-0.089985,-0.038692,0.11057
-0.092153,-0.039287,0.113571
-0.08806,-0.040969,0.111265
-0.095466,-0.043459,0.111497
-0.094891,-0.051294,0.116212
-0.100657,-0.047851,0.118767
-0.102375,-0.05181,0.119767
-0.09971,-0.050987,0.120754
-0.103436,-0.050183,0.123217
-0.104557,-0.050762,0.130335
-0.108543,-0.054321,0.133381
-0.104101,-0.055254,0.134531
-0.106017,-0.05552,0.135065
-0.105047,-0.0604,0.137403
-0.108013,-0.064188,0.138643
-0.106657,-0.065824,0.144408
-0.108728,-0.070241,0.14319
-0.106645,-0.072016,0.146656
-0.107835,-0.072187,0.151945
-0.107157,-0.077023,0.156208
-0.103372,-0.076674,0.158951
-0.103766,-0.082105,0.157129
-0.101815,-0.084113,0.164073
-0.103885,-0.087401,0.168151
-0.101645,-0.089802,0.174467
-0.098965,-0.093505,0.174179
-0.09712,-0.097695,0.180591
-0.098605,-0.100197,0.184383
-0.09747,-0.095646,0.183675
-0.091843,-0.107177,0.195748
-0.093934,-0.105435,0.194033
-0.088735,-0.109679,0.199857
-0.092249,-0.109625,0.203299
-0.086138,-0.117184,0.213148
-0.086053,-0.121957,0.211958
-0.085042,-0.124776,0.216661
-0.083785,-0.128421,0.215682
-0.081871,-0.123233,0.220805
-0.077751,-0.125849,0.226209
-0.081654,-0.128782,0.231176
-0.076757,-0.127913,0.230753
-0.070366,-0.123911,0.234859
-0.069763,-0.117649,0.236037
-0.062618,-0.115906,0.239684
-0.063758,-0.108461,0.238792
-0.060053,-0.103338,0.240079
-0.055949,-0.102517,0.243773
-0.050512,-0.09786,0.244492
-0.048772,-0.094163,0.24584
-0.04802,-0.090608,0.248247
-0.040303,-0.086738,0.25424
-0.036755,-0.082518,0.253467
-0.031443,-0.078189,0.255857
-0.026332,-0.075257,0.25695
-0.022931,-0.072907,0.261875
-0.01585,-0.072247,0.262483
-0.007996,-0.069126,0.265516
-0.004436,-0.067018,0.270302
-0.001378,-0.066602,0.267423
0.008673,-0.070867,0.27621
0.012637,-0.064506,0.276024
0.024854,-0.066704,0.276699
0.026128,-0.068018,0.282536
0.035589,-0.067814,0.286833
0.044362,-0.073683,0.288633
0.047681,-0.06942,0.291675
0.052012,-0.074424,0.291433
0.059084,-0.077532,0.291542
0.061879,-0.08041,0.296348
0.074216,-0.068514,0.298587
0.092866,-0.066976,0.29883
0.090883,-0.082643,0.301015
0.078059,-0.091618,0.303666
0.084911,-0.084804,0.306963
0.092307,-0.079486,0.307503
0.101889,-0.076279,0.308276
0.105309,-0.08011,0.313675
0.105067,-0.073786,0.318017
0.111786,-0.070448,0.320487
0.119948,-0.066791,0.320531
0.119127,-0.069092,0.325953
0.110544,-0.070073,0.323235
0.110383,-0.067404,0.325608
0.118531,-0.070535,0.326703
0.12007,-0.067109,0.330355
0.110502,-0.067538,0.327586
0.112272,-0.067092,0.331412
0.114994,-0.066826,0.330263
0.115468,-0.063369,0.330511
0.109058,-0.067323,0.33102
0.103981,-0.068164,0.328027
0.102182,-0.067662,0.328285
0.098758,-0.06717,0.327726
0.099542,-0.071262,0.327367
0.091847,-0.073624,0.325824
0.085942,-0.073949,0.327516
0.085918,-0.074334,0.326514
0.082793,-0.084409,0.327619
0.079332,-0.080812,0.327455
0.078226,-0.075798,0.327606
0.077485,-0.085662,0.325153
0.074276,-0.089389,0.328114
0.072586,-0.08703,0.331043
0.069623,-0.090371,0.330164
0.070239,-0.087625,0.332996
0.06802,-0.089769,0.332951
0.065314,-0.091684,0.336651
0.06068,-0.092772,0.337613
0.05819,-0.091076,0.342978
0.061237,-0.088905,0.343577
0.058234,-0.091203,0.345477
0.052854,-0.087321,0.347438
0.048966,-0.085738,0.35428
0.047865,-0.091517,0.359184
0.045042,-0.088556,0.36081
0.041991,-0.084962,0.362513
0.033925,-0.081918,0.370014
0.033717,-0.079526,0.374065
0.038449,-0.077678,0.380491
0.030854,-0.075854,0.38392
0.027298,-0.078094,0.387291
0.027958,-0.077434,0.389063
0.026406,-0.07692,0.392257
0.022689,-0.081344,0.399534
0.017247,-0.082029,0.401143
0.017198,-0.08363,0.405388
0.015939,-0.080232,0.407856
0.013741,-0.0828,0.41463
0.013346,-0.077675,0.419713
0.011121,-0.075619,0.422352
0.015504,-0.07991,0.428883
0.011929,-0.07683,0.430303
0.012169,-0.072935,0.426858
0.011159,-0.07603,0.435352
0.007733,-0.072281,0.439113
0.011245,-0.071847,0.439853
0.011418,-0.065625,0.439405
0.011355,-0.067173,0.44447
0.003826,-0.060701,0.44475
0.006936,-0.058971,0.448205
0.011425,-0.053042,0.448262
0.010736,-0.054728,0.453643
0.012373,-0.050332,0.453942
0.007869,-0.049402,0.457735
0.006669,-0.040759,0.459021
0.008491,-0.037628,0.46251
0.008778,-0.033955,0.460651
0.005131,-0.033467,0.464109
0.005182,-0.028722,0.467087
0.009499,-0.026324,0.471637
0.00835,-0.022963,0.475764
0.006866,-0.019538,0.476977
0.007237,-0.015591,0.478793
0.00853,-0.015572,0.478948
0.010382,-0.011642,0.48397
0.008058,-0.011924,0.48637
0.008639,-0.007708,0.488859
0.006448,-0.006935,0.492064
0.003807,-0.003602,0.491878
0.003866,-0.008531,0.496217
0.003279,-0.000367,0.491729
-0.003599,-0.004767,0.496713
-0.002305,-0.000855,0.496528
-0.003365,-0.001258,0.497936
-0.006577,0.000875,0.49919
-0.007062,-0.001201,0.496625
-0.006214,-0.003722,0.4965
-0.009833,-0.004263,0.490116
-0.008728,-0.001672,0.491997
-0.013173,-0.002964,0.490832
-0.018129,-0.005879,0.490869
-0.01225,-0.003362,0.491034
-0.013307,-0.007907,0.486755
-0.017127,-0.009893,0.487446
-0.019602,-0.010963,0.483634
-0.019959,-0.014615,0.478634
-0.018501,-0.014235,0.480182
-0.020447,-0.020701,0.479632
-0.022247,-0.018284,0.475045
-0.023028,-0.024244,0.47501
-0.021757,-0.024876,0.473791
-0.021446,-0.024107,0.466444
-0.022408,-0.031492,0.466158
-0.023021,-0.031917,0.461138
-0.023165,-0.034441,0.4586
-0.022341,-0.041562,0.460907
-0.023477,-0.042167,0.457002
-0.025758,-0.04268,0.453591
-0.023934,-0.041044,0.450986
-0.023873,-0.043827,0.44914
-0.023285,-0.044329,0.448511
-0.024511,-0.046431,0.443176
-0.027062,-0.045502,0.441525
-0.02818,-0.044213,0.436888
-0.026178,-0.042368,0.436728
-0.032516,-0.041644,0.436493
-0.030784,-0.043072,0.434097
-0.03709,-0.043139,0.427348
-0.035061,-0.037332,0.421105
-0.035477,-0.039141,0.421383
-0.0347,-0.037453,0.422467
-0.03542,-0.031517,0.415657
-0.036579,-0.031583,0.412691
-0.031933,-0.033842,0.407656
-0.036043,-0.029987,0.404456
-0.037326,-0.027806,0.398818
-0.040719,-0.025594,0.399514
-0.038061,-0.023742,0.395639
-0.038205,-0.021061,0.390805
-0.04198,-0.02038,0.387257
-0.043222,-0.01899,0.383209
-0.043643,-0.018696,0.381007
-0.043309,-0.015908,0.377687
-0.045553,-0.013174,0.37569
-0.045037,-0.011773,0.376739
-0.043944,-0.01334,0.372516
-0.048383,-0.007315,0.370363
-0.045756,-0.005955,0.367441
-0.052372,-0.002921,0.363661
-0.048442,-0.005192,0.367371
-0.050372,0.001911,0.364258
-0.054045,-0.000638,0.360944
-0.054279,0.003215,0.358591
-0.054187,0.004312,0.362568
-0.0562,0.000983,0.360129
-0.056915,0.009087,0.355782
-0.058037,0.006495,0.358542
-0.062515,0.006031,0.356185
-0.057778,0.0039,0.357497
-0.061625,0.006061,0.354356
-0.064181,0.006916,0.350863
-0.063704,0.005598,0.35309
-0.065297,0.005395,0.35091
-0.069471,0.006815,0.345852
-0.070724,0.001553,0.343131
-0.069524,-0.002345,0.34365
-0.071399,-0.001557,0.337055
-0.075199,0.001498,0.334909
-0.076984,0.000406,0.334506
-0.077878,-0.003064,0.328121
-0.080998,-0.006671,0.323641
-0.088163,-0.006899,0.31989
-0.094499,-0.001611,0.316558
-0.097223,-0.004931,0.314046
-0.100996,-0.007266,0.31373
-0.106969,-0.004487,0.311285
-0.10878,-0.008591,0.306448
-0.1156,-0.008294,0.302113
-0.119643,-0.003818,0.302007
-0.12181,-0.004351,0.301474
-0.125588,-0.005573,0.296561
-0.128914,-0.003621,0.297936
-0.135599,-0.003307,0.296239
-0.142489,0.003671,0.296276
-0.144093,0.004018,0.295693
-0.146338,0.001916,0.296151
-0.149785,0.002877,0.298794
-0.155942,0.006027,0.294504
-0.159824,0.004577,0.297748
-0.159986,0.005723,0.299632
-0.15779,0.010475,0.301213
-0.15908,0.007742,0.301025
-0.15945,0.011726,0.30557
-0.161998,0.009998,0.307996
-0.162846,0.013504,0.313125
-0.155745,0.010061,0.314874
-0.158119,0.007459,0.319477
-0.157209,0.010838,0.322268
-0.15208,0.020156,0.324472
-0.142023,0.017365,0.328893
-0.151284,0.007508,0.330094
-0.146955,0.010059,0.336865
-0.142343,-0.002062,0.340409
-0.142929,0.022038,0.339887
-0.123706,0.026914,0.342587
-0.127259,-0.021338,0.34521
-0.123212,-0.029321,0.347661
-0.117672,-0.003523,0.34982
-0.111701,0.002924,0.354821
-0.103855,-0.01384,0.35499
-0.100313,-0.014442,0.354037
-0.089018,-0.018542,0.360591
-0.064895,-0.016224,0.36234
-0.056143,-0.028603,0.3632
-0.060177,-0.047745,0.366545
-0.047734,-0.048138,0.371986
-0.018904,-0.044179,0.377526
0.000507,-0.054921,0.378381
0.017219,-0.064552,0.380338
0.028574,-0.072199,0.382177
0.050323,-0.079177,0.384835
0.074162,-0.079736,0.390136
0.09067,-0.089248,0.389146
0.099517,-0.095938,0.390374
0.120551,-0.100359,0.394785
0.140522,-0.097646,0.397312
0.160617,-0.101264,0.396166
0.177156,-0.105402,0.397026
0.192731,-0.106776,0.398449
0.207063,-0.109696,0.40173
0.225145,-0.106859,0.402964
0.238716,-0.109573,0.409258
0.247969,-0.104468,0.40815
0.264146,-0.101422,0.414863
0.274063,-0.096072,0.4202
0.283625,-0.089648,0.42169
0.290982,-0.086904,0.4264
0.299373,-0.079292,0.432927
0.303911,-0.066957,0.435988
0.308632,-0.061274,0.444805
0.311583,-0.046857,0.447264
0.314788,-0.036837,0.459764
0.314022,-0.02106,0.469687
0.306308,-0.008202,0.474503
0.305108,0.00601,0.480885
0.304874,0.022451,0.494912
0.29776,0.043679,0.504095
0.290454,0.056653,0.513966
0.279997,0.075618,0.523946
0.270674,0.094373,0.534751
0.250589,0.114789,0.548216
0.23853,0.133634,0.555665
0.214658,0.158865,0.569176
0.199331,0.177083,0.579318
0.183662,0.203199,0.590272
0.157667,0.223766,0.599296
0.142013,0.249437,0.60446
0.118969,0.270557,0.617272
0.096511,0.294819,0.625042
0.078336,0.315932,0.635608
0.062609,0.339025,0.640845
0.045716,0.354619,0.651883
0.029209,0.36891,0.651128
0.010044,0.383053,0.658799
-0.008099,0.398537,0.66287
-0.022326,0.41171,0.6672
-0.039768,0.419194,0.66779
-0.048187,0.4248,0.670222
-0.067356,0.42975,0.673293
-0.087371,0.440034,0.674903
-0.099625,0.435964,0.672073
-0.115515,0.442187,0.670356
-0.131072,0.434888,0.665822
-0.147089,0.429576,0.661773
-0.161195,0.422197,0.659733
-0.174689,0.40698,0.651141
-0.186978,0.397464,0.645039
-0.200883,0.37999,0.640351
-0.220178,0.367119,0.629293
-0.231922,0.345824,0.624568
-0.242585,0.326676,0.610183
-0.257297,0.311475,0.601436
-0.271392,0.286079,0.588856
-0.279048,0.269396,0.574464
-0.292412,0.243328,0.560188
-0.308888,0.221805,0.546459
-0.315833,0.193324,0.529572
-0.324838,0.169306,0.513921
-0.333925,0.146175,0.494555
-0.339925,0.121317,0.479738
-0.345734,0.092737,0.463521
-0.353484,0.068588,0.446179
-0.355133,0.048163,0.429637
-0.35425,0.021286,0.410268
-0.357206,-0.009038,0.393529
-0.357686,-0.034381,0.379055
-0.360543,-0.049177,0.364461
-0.362957,-0.07342,0.348385
-0.361741,-0.094737,0.331823
-0.359261,-0.101632,0.318942
-0.363033,-0.12404,0.305497
-0.348924,-0.155155,0.294999
-0.336888,-0.178082,0.282884
-0.334609,-0.188416,0.272471
-0.326692,-0.207861,0.260481
-0.314617,-0.223006,0.254159
-0.300938,-0.239114,0.245204
-0.296584,-0.252976,0.234606
-0.291859,-0.265554,0.225057
-0.273275,-0.27279,0.217085
-0.259016,-0.283489,0.209709
-0.246844,-0.282802,0.202646
-0.237851,-0.291561,0.20007
-0.215332,-0.293672,0.197426
-0.195888,-0.293759,0.195879
-0.179204,-0.295818,0.196051
-0.164481,-0.292276,0.196894
-0.145094,-0.281897,0.195243
-0.134365,-0.27633,0.195552
-0.114188,-0.266914,0.200068
-0.091961,-0.255813,0.201751
-0.069995,-0.248311,0.207081
-0.051607,-0.235876,0.210292
-0.029089,-0.224015,0.214823
-0.00999,-0.208931,0.21759
0.012351,-0.202642,0.228038
0.033479,-0.194819,0.229832
0.056905,-0.180678,0.235111
0.078385,-0.172712,0.242702
0.10133,-0.162131,0.256195
0.116471,-0.147887,0.25453
0.136777,-0.135928,0.259645
0.151629,-0.120501,0.264468
0.175231,-0.109811,0.274671
0.189451,-0.100021,0.282613
0.204528,-0.089373,0.289587
0.21931,-0.0815,0.295072
0.236388,-0.069241,0.299614
0.250933,-0.058271,0.305911
0.260351,-0.047216,0.310154
0.27482,-0.040317,0.314423
0.285747,-0.035343,0.316777
0.294935,-0.024009,0.318766
0.305647,-0.019063,0.321574
0.310688,-0.010404,0.325098
0.323313,0.001349,0.330547
0.3283,0.005045,0.333361
0.330509,0.011683,0.336628
0.334314,0.016864,0.341331
0.333756,0.021317,0.341796
0.33809,0.027487,0.340696
0.338029,0.031617,0.344733
0.338418,0.032283,0.348192
0.336174,0.029827,0.352503
0.330728,0.035401,0.355331
0.331884,0.036732,0.357579
0.326645,0.03983,0.361925
0.317217,0.0363,0.362787
0.313909,0.038769,0.365353
0.308008,0.036696,0.368349
0.303523,0.032953,0.374097
0.298224,0.031836,0.373756
0.291788,0.032041,0.38041
0.283899,0.029612,0.38173
0.281283,0.022428,0.389051
0.271792,0.023798,0.394205
0.264212,0.01839,0.395412
0.254523,0.01614,0.397358
0.246459,0.017265,0.402682
0.236119,0.016243,0.405125
0.225931,0.01092,0.406399
0.219216,0.011385,0.413866
0.208036,0.013574,0.415853
0.202816,0.012103,0.418862
0.191353,0.010463,0.424794
0.186355,0.010359,0.425974
0.17822,0.012345,0.428323
0.171544,0.010433,0.431839
0.159753,0.012266,0.437429
0.156014,0.015647,0.439038
0.150134,0.015063,0.437298
0.146958,0.017155,0.44029
0.14286,0.014556,0.443884
0.140768,0.021381,0.443705
0.139575,0.019562,0.444242
0.136117,0.021114,0.441945
0.136068,0.015009,0.444769
0.139081,0.020546,0.442424
0.134639,0.018949,0.442942
0.137327,0.021379,0.443745
0.139263,0.020922,0.439174
0.144003,0.021947,0.43576
0.140964,0.02198,0.434691
0.143456,0.021169,0.43167
0.142995,0.026644,0.424231
0.150893,0.026464,0.420616
0.15453,0.02797,0.414098
0.153644,0.026093,0.40782
0.15706,0.027389,0.402243
0.160005,0.030269,0.396147
0.163875,0.034193,0.385084
0.170279,0.031277,0.382694
0.165261,0.036896,0.371993
0.166173,0.03923,0.363002
0.166764,0.046564,0.351191
0.167312,0.047303,0.345575
0.162964,0.054819,0.336177
0.166024,0.059108,0.331477
0.163787,0.072777,0.317169
0.163979,0.074109,0.309027
0.157299,0.082517,0.297972
0.157794,0.091057,0.287307
0.153419,0.09818,0.276303
0.15657,0.098052,0.268281
0.154483,0.106185,0.255657
0.14871,0.116185,0.242481
0.148932,0.119742,0.237111
0.146853,0.124698,0.225598
0.146598,0.128039,0.214119
0.13847,0.136293,0.201268
0.136288,0.140352,0.194956
0.137136,0.148053,0.17888
0.131986,0.149792,0.167235
0.131949,0.1512,0.159576
0.123628,0.153757,0.148573
0.121868,0.155964,0.135673
0.119828,0.161887,0.122618
0.119051,0.164432,0.113411
0.110754,0.160798,0.101811
0.107939,0.16123,0.094038
0.111089,0.166433,0.080807
0.104167,0.166587,0.06888
0.101732,0.169287,0.057035
0.095887,0.175133,0.044463
0.091589,0.174875,0.034017
0.085486,0.174134,0.025649
0.087789,0.177278,0.011004
0.080553,0.187422,-0.000595
0.075036,0.184607,-0.013983
0.070307,0.198595,-0.030352
0.062265,0.196732,-0.040434
0.063092,0.202333,-0.055942
0.053925,0.205583,-0.066939
0.04785,0.217325,-0.080629
0.047568,0.221295,-0.091714
0.036287,0.225277,-0.104201
0.028717,0.233183,-0.115784
0.025783,0.236223,-0.124891
0.019731,0.240683,-0.139242
0.01734,0.24653,-0.148579
0.012768,0.246941,-0.159968
0.009831,0.244439,-0.162393
0.005316,0.243185,-0.173983
0.004657,0.243444,-0.182506
-0.001848,0.239391,-0.191467
-0.001545,0.232304,-0.199473
-0.003269,0.227102,-0.205979
-0.003454,0.219543,-0.211191
-0.001109,0.203595,-0.218083
0.003078,0.191944,-0.222167
0.003179,0.177627,-0.228065
0.003103,0.164831,-0.232601
0.005502,0.146735,-0.24094
0.006453,0.130472,-0.243422
0.006036,0.119668,-0.247769
0.00489,0.10319,-0.254546
0.00535,0.092935,-0.259447
0.010081,0.075663,-0.265223
0.009976,0.067022,-0.27322
0.009429,0.052752,-0.278312
0.011382,0.048775,-0.284314
0.011592,0.036875,-0.282851
0.01488,0.036732,-0.286892
0.015711,0.029186,-0.28996
0.01431,0.023197,-0.290068
0.014821,0.022832,-0.292987
0.014067,0.021093,-0.293744
0.014571,0.023592,-0.289263
0.012965,0.024746,-0.289179
0.018442,0.028387,-0.288548
0.02047,0.032034,-0.282665
0.022817,0.03643,-0.27936
0.025845,0.04416,-0.269671
0.031906,0.052305,-0.268497
0.040825,0.057117,-0.257282
0.049027,0.063305,-0.253423
0.053241,0.068878,-0.248085
0.059763,0.079777,-0.243811
0.062779,0.084727,-0.236166
0.070403,0.08473,-0.2307
0.076435,0.08694,-0.226747
0.076129,0.088417,-0.222348
0.087104,0.089218,-0.222147
0.092309,0.087034,-0.222798
0.098128,0.078736,-0.220664
0.102533,0.071839,-0.220539
0.110637,0.063384,-0.223346
0.113135,0.056205,-0.227951
0.113726,0.047994,-0.228241
0.116123,0.035252,-0.235759
0.111301,0.027487,-0.23876
0.109779,0.016781,-0.246759
0.10458,0.007673,-0.256039
0.101144,-0.00506,-0.260045
0.097921,-0.014123,-0.270155
0.09382,-0.01983,-0.27476
0.08693,-0.027537,-0.282875
0.082112,-0.037996,-0.288767
0.071638,-0.050046,-0.293759
0.062876,-0.052665,-0.300369
0.05082,-0.060751,-0.307173
0.047868,-0.069575,-0.309022
0.03765,-0.071648,-0.311583
0.025616,-0.074425,-0.319496
0.019676,-0.076875,-0.316516
0.010749,-0.083584,-0.320068
0.001643,-0.085926,-0.323722
-0.008906,-0.091754,-0.317739
-0.020561,-0.091445,-0.319657
-0.029543,-0.093776,-0.315031
-0.040878,-0.094086,-0.312866
-0.049953,-0.097875,-0.306648
-0.062187,-0.103828,-0.300738
-0.066869,-0.10732,-0.289808
-0.081149,-0.114627,-0.283383
-0.087366,-0.121522,-0.275473
-0.095722,-0.133982,-0.265108
-0.103387,-0.144701,-0.253618
-0.10592,-0.152938,-0.245304
-0.114764,-0.160658,-0.23005
-0.121549,-0.174573,-0.216337
-0.12895,-0.18245,-0.201303
-0.130174,-0.194536,-0.191453
-0.131777,-0.207469,-0.173351
-0.133486,-0.21625,-0.164215
-0.13192,-0.230128,-0.146636
-0.135647,-0.236362,-0.136243
-0.130889,-0.251316,-0.117476
-0.129609,-0.256309,-0.106788
-0.124651,-0.268577,-0.092305
-0.128621,-0.275071,-0.082403
-0.118658,-0.279036,-0.068727
-0.114283,-0.285599,-0.059599
-0.109027,-0.292015,-0.048673
-0.101563,-0.291364,-0.043172
-0.095867,-0.2939,-0.031473
-0.090663,-0.299773,-0.027877
-0.081773,-0.298239,-0.026505
-0.075263,-0.299627,-0.020956
-0.060342,-0.299297,-0.016162
-0.055638,-0.300041,-0.012118
-0.045133,-0.294292,-0.012758
-0.037301,-0.292505,-0.014597
-0.026265,-0.291666,-0.013769
-0.020921,-0.285554,-0.015989
-0.006826,-0.28027,-0.021619
0.001993,-0.275993,-0.022559
0.013515,-0.274977,-0.027524
0.027008,-0.264594,-0.033902
0.039399,-0.266349,-0.03642
0.049592,-0.259551,-0.04385
0.065219,-0.257663,-0.049624
0.072489,-0.245942,-0.05582
0.086623,-0.247601,-0.061266
0.09953,-0.243336,-0.069174
0.102565,-0.238191,-0.07949
0.116182,-0.23481,-0.085393
0.125838,-0.229275,-0.091055
0.136063,-0.222625,-0.096464
0.1417,-0.218086,-0.099747
0.147641,-0.211762,-0.106467
0.153143,-0.203924,-0.108255
0.160716,-0.197762,-0.11704
0.165691,-0.191273,-0.119311
0.169066,-0.182715,-0.122768
0.173921,-0.172071,-0.125244
0.172748,-0.168455,-0.124863
0.171579,-0.166154,-0.127406
0.175815,-0.158711,-0.127487
0.177544,-0.15347,-0.132151
0.174435,-0.147408,-0.128035
0.179919,-0.143653,-0.12394
0.176968,-0.142409,-0.126514
0.176368,-0.135772,-0.125411
0.172583,-0.135893,-0.120264
0.172261,-0.135626,-0.112793
0.169574,-0.136892,-0.11338
0.171607,-0.136374,-0.109032
0.16615,-0.136387,-0.103964
0.16162,-0.139968,-0.099927
0.16216,-0.142609,-0.094277
0.160419,-0.145161,-0.086968
0.152596,-0.154632,-0.08197
0.150291,-0.15348,-0.074956
0.14909,-0.157286,-0.069791
0.142143,-0.164552,-0.06084
0.138765,-0.17267,-0.055754
0.139537,-0.177662,-0.049059
0.132174,-0.185007,-0.044346
0.134876,-0.190973,-0.034155
0.129621,-0.201011,-0.028451
0.127057,-0.209598,-0.022073
0.126139,-0.214767,-0.016066
0.124011,-0.219861,-0.009632
0.126421,-0.231433,-0.000969
0.122825,-0.234602,0.004717
0.118437,-0.238894,0.012065
0.125294,-0.246255,0.019828
0.12761,-0.250976,0.026342
0.126246,-0.256273,0.031018
0.128899,-0.261453,0.03827
0.125062,-0.266181,0.048227
0.125755,-0.262986,0.052715
0.133532,-0.262694,0.060884
0.130301,-0.262715,0.066831
0.131648,-0.26139,0.075025
0.130921,-0.258836,0.081674
0.134743,-0.257263,0.090723
0.135883,-0.256243,0.093437
0.137284,-0.252396,0.100165
0.138112,-0.242765,0.109125
0.14058,-0.23745,0.114606
0.145651,-0.236088,0.120906
0.140417,-0.225645,0.128718
0.142176,-0.220913,0.135139
0.143679,-0.210346,0.146744
0.14647,-0.201809,0.15445
0.147528,-0.196657,0.161221
0.145701,-0.182103,0.170407
0.141791,-0.177281,0.17883
0.143433,-0.168945,0.183142
0.143734,-0.157878,0.192217
0.139507,-0.151055,0.195432
0.141334,-0.142175,0.207704
0.136394,-0.128995,0.214145
0.136998,-0.119545,0.219875
0.134016,-0.110136,0.228254
0.123364,-0.099972,0.229254
0.125831,-0.091563,0.234193
0.122157,-0.08107,0.237805
0.119252,-0.067073,0.241446
0.11811,-0.055777,0.247771
0.110122,-0.051169,0.248534
0.105948,-0.038554,0.249658
0.099786,-0.028464,0.250653
0.089935,-0.019902,0.255167
0.086697,-0.006352,0.254471
0.075633,0.003698,0.251717
0.066144,0.012287,0.25511
0.061298,0.019451,0.257828
0.051001,0.029946,0.253191
0.041153,0.036985,0.25278
0.034759,0.045828,0.251619
0.023376,0.051566,0.254621
0.013129,0.059152,0.250729
0.004198,0.068346,0.249173
-0.009525,0.071722,0.245727
-0.019653,0.079868,0.243288
-0.033665,0.084258,0.244571
-0.048977,0.091212,0.241131
-0.063574,0.093823,0.240668
-0.077342,0.09656,0.242361
-0.089173,0.099584,0.242206
-0.106473,0.103385,0.242624
-0.119133,0.1107,0.238398
-0.130647,0.113433,0.238106
-0.14533,0.112965,0.239491
-0.160019,0.115747,0.235521
-0.173952,0.118547,0.237986
-0.189133,0.115392,0.237284
-0.202881,0.121098,0.233842
-0.209682,0.128797,0.233463
-0.217426,0.124351,0.230991
-0.239782,0.120512,0.22948
-0.243936,0.11472,0.228979
-0.256865,0.127877,0.227926
-0.26608,0.11994,0.223777
-0.276613,0.085523,0.228012
-0.260991,0.100855,0.226287
-0.290267,0.118347,0.213844
-0.322095,0.097259,0.215115
-0.301237,0.092009,0.217446
-0.304994,0.0959,0.214896
-0.322405,0.07638,0.21458
-0.31046,0.070017,0.210629
-0.317656,0.059266,0.211821
-0.31911,0.063837,0.206902
-0.305523,0.065342,0.207565
-0.313661,0.051216,0.203424
-0.32856,0.040012,0.201935
-0.330728,0.031378,0.196926
-0.330679,0.02724,0.196289
-0.334868,0.023618,0.197405
-0.33944,0.021458,0.194993
-0.338897,0.019703,0.198459
-0.333922,0.021296,0.197514
-0.330374,0.01773,0.193488
-0.322811,0.013829,0.195781
-0.3198,0.008882,0.19119
-0.317037,0.008213,0.190575
-0.309685,0.004474,0.187304
-0.302948,-0.007974,0.183795
-0.288427,-0.01145,0.182437
-0.275077,-0.012113,0.177156
-0.251852,-0.026591,0.174289
-0.235114,-0.024959,0.170707
-0.20325,-0.032158,0.167259
-0.201015,-0.074208,0.163459
-0.203305,-0.101633,0.1546
-0.180247,-0.097056,0.153086
-0.153287,-0.105333,0.147279
-0.113577,-0.12154,0.142587
-0.087164,-0.143696,0.134977
-0.061263,-0.163588,0.13076
-0.027359,-0.200391,0.123215
-0.005516,-0.224626,0.116884
0.029071,-0.225258,0.109687
0.048225,-0.241259,0.104282
0.071054,-0.277996,0.100746
0.085071,-0.30449,0.096116
0.104745,-0.312187,0.0866
0.130888,-0.322492,0.082903
0.153583,-0.332874,0.070218
0.172979,-0.331828,0.06446
0.192758,-0.33973,0.05736
0.204442,-0.344336,0.049218
0.222392,-0.341414,0.040241
0.244325,-0.325866,0.033117
0.246906,-0.329392,0.021609
0.288432,-0.30524,0.010269
0.289237,-0.293538,-0.003403
0.293184,-0.302792,-0.012955
0.311702,-0.284104,-0.021976
0.315381,-0.255547,-0.033033
0.325606,-0.230874,-0.042059
0.340835,-0.215182,-0.05004
0.346803,-0.192012,-0.052416
0.359254,-0.164711,-0.061856
0.377973,-0.139597,-0.06143
0.383952,-0.121984,-0.065552
0.397284,-0.087236,-0.063315
0.40919,-0.060323,-0.063971
0.422341,-0.047694,-0.059819
0.440078,-0.030045,-0.056645
0.451852,-0.000183,-0.053269
0.461929,0.02897,-0.041203
0.478014,0.056053,-0.035274
0.491204,0.071872,-0.022547
0.497697,0.095392,-0.010805
0.511076,0.120651,0.004181
0.521304,0.144651,0.018216
0.531369,0.160868,0.034332
0.536551,0.180634,0.048836
0.537133,0.203892,0.064477
0.544781,0.222962,0.081489
0.545562,0.241629,0.096595
0.542951,0.254793,0.114421
0.542779,0.274631,0.128416
0.53659,0.290988,0.143614
0.539444,0.310899,0.156794
0.537896,0.327412,0.16961
0.522635,0.345766,0.184941
0.507116,0.362452,0.19353
0.488899,0.3752,0.201707
0.478628,0.379296,0.214807
0.465504,0.392555,0.220247
0.451046,0.408872,0.224767
0.430454,0.416761,0.231297
0.408896,0.421359,0.229073
0.391389,0.425226,0.23598
0.366923,0.420591,0.237543
0.328169,0.424834,0.236254
0.305735,0.428378,0.234314
0.28116,0.419699,0.227068
0.258463,0.413183,0.228181
0.231316,0.408378,0.222515
0.201157,0.395013,0.21589
0.180543,0.38501,0.207006
0.157357,0.366286,0.202771
0.134983,0.345344,0.19274
0.109405,0.326074,0.188983
0.086913,0.306106,0.173364
0.069686,0.285987,0.163392
0.045923,0.25988,0.154222
0.021393,0.234941,0.141435
-0.000395,0.213506,0.129186
-0.019345,0.183947,0.11262
-0.038204,0.15985,0.100563
-0.060982,0.131159,0.087706
-0.077891,0.106274,0.074924
-0.093675,0.079075,0.061402
-0.109743,0.050256,0.049064
-0.126001,0.028002,0.033154
-0.135413,0.001698,0.022102
-0.153548,-0.022818,0.009174
-0.162844,-0.045033,-0.00096
-0.169729,-0.062403,-0.012299
-0.179924,-0.07963,-0.027359
-0.186098,-0.098714,-0.03287
-0.190122,-0.113745,-0.045526
-0.19097,-0.129116,-0.056441
-0.188707,-0.145,-0.062551
-0.193459,-0.153153,-0.074358
-0.192083,-0.165489,-0.080194
-0.189178,-0.170617,-0.085463
-0.183146,-0.171518,-0.093012
-0.181551,-0.179465,-0.099455
-0.173579,-0.178246,-0.105001
-0.169194,-0.179107,-0.107037
-0.158544,-0.175452,-0.111707
-0.152379,-0.172471,-0.111289
-0.144653,-0.167792,-0.110681
-0.135553,-0.160952,-0.112405
-0.122485,-0.154322,-0.111593
-0.11773,-0.146967,-0.113158
-0.107941,-0.131722,-0.112888
-0.09627,-0.127976,-0.116134
-0.088605,-0.120792,-0.11086
-0.0771,-0.107396,-0.114703
-0.066268,-0.097023,-0.110836
-0.057593,-0.087981,-0.110203
-0.043689,-0.084984,-0.11003
-0.034049,-0.075869,-0.107671
-0.023223,-0.067639,-0.103961
-0.015683,-0.055742,-0.104347
-0.002119,-0.050813,-0.105309
0.008961,-0.044937,-0.105704
0.021672,-0.039414,-0.100754
0.028489,-0.030045,-0.100702
0.034919,-0.022653,-0.101516
0.047448,-0.015751,-0.101586
0.052903,-0.009474,-0.097543
0.062256,-0.004548,-0.094712
0.069369,0.001121,-0.087866
0.078631,0.008347,-0.087306
0.084553,0.019733,-0.081909
0.088923,0.022102,-0.079733
0.092799,0.027599,-0.073586
0.096401,0.0374,-0.069296
0.101567,0.042403,-0.064538
0.103255,0.044268,-0.061561
0.105225,0.047449,-0.052308
0.099842,0.050514,-0.053307
0.104999,0.056579,-0.045763
0.102923,0.059458,-0.038007
0.099497,0.062879,-0.036612
0.095273,0.067209,-0.030392
0.091436,0.072665,-0.023809
0.090603,0.076131,-0.023931
0.085551,0.084547,-0.015226
0.080008,0.07923,-0.00817
0.077746,0.085417,-0.003572
0.0719,0.088786,0.000467
0.070069,0.086535,0.006505
0.065529,0.083172,0.004343
0.058436,0.085034,0.011893
0.053499,0.081825,0.014243
0.047974,0.08119,0.015546
0.042865,0.074323,0.017752
0.041372,0.069588,0.021226
0.032719,0.07058,0.019989
0.029684,0.061954,0.020175
0.027368,0.05858,0.021081
0.019342,0.051066,0.020488
0.01398,0.045849,0.020189
0.010594,0.034503,0.01903
0.011351,0.031752,0.01932
0.004625,0.02671,0.018439
0.000314,0.024811,0.014435
-0.005226,0.017395,0.015045
-0.009735,0.013443,0.011695
-0.01732,0.008894,0.012138
-0.024301,0.017532,0.011016
-0.021693,0.012759,0.005812
-0.032261,0.014184,0.003812
-0.029975,0.014471,0.000339
-0.035162,0.016867,0.000886
-0.041619,0.021636,-0.001335
-0.041772,0.024941,-0.003307
-0.043589,0.032107,-0.005727
-0.04299,0.040182,-0.010185
-0.043462,0.048023,-0.00968
-0.0488,0.055621,-0.00641
-0.05223,0.066025,-0.011629
-0.049371,0.075049,-0.011924
-0.049844,0.085481,-0.016204
-0.052734,0.094285,-0.018726
-0.050798,0.107335,-0.023822
-0.051714,0.112086,-0.026383
-0.053099,0.127124,-0.027835
-0.053184,0.133397,-0.030276
-0.04919,0.148208,-0.03175
-0.051165,0.16256,-0.041448
-0.04687,0.167312,-0.039601
-0.048548,0.180145,-0.045912
-0.047214,0.19243,-0.049205
-0.048454,0.203183,-0.057259
-0.042339,0.210816,-0.063606
-0.039135,0.222015,-0.069179
-0.039263,0.230978,-0.069372
-0.042002,0.241555,-0.076342
-0.038616,0.25331,-0.084287
-0.038362,0.265019,-0.089258
-0.04084,0.274774,-0.097178
-0.041761,0.288109,-0.105141
-0.044093,0.295465,-0.107799
-0.044379,0.303271,-0.116053
-0.045106,0.308584,-0.122286
-0.050665,0.31813,-0.127284
-0.052248,0.326591,-0.135516
-0.059699,0.32861,-0.145485
-0.062194,0.333213,-0.152142
-0.065717,0.335679,-0.160334
-0.073551,0.338855,-0.166681
-0.078039,0.343301,-0.176629
-0.086476,0.342733,-0.184488
-0.094466,0.34392,-0.190096
-0.102708,0.348299,-0.197044
-0.111015,0.345596,-0.201106
-0.11811,0.342924,-0.212985
-0.124033,0.345048,-0.215361
-0.135872,0.341138,-0.22525
-0.147562,0.338931,-0.233674
-0.157456,0.34382,-0.237453
-0.165975,0.344286,-0.24329
-0.174794,0.341811,-0.249574
-0.185362,0.339491,-0.252043
-0.200637,0.343605,-0.258675
-0.209582,0.341567,-0.26134
-0.226024,0.341209,-0.266825
-0.236219,0.343714,-0.271067
-0.251921,0.34411,-0.274335
-0.256935,0.346261,-0.278935
-0.270012,0.345751,-0.283717
-0.282209,0.343622,-0.287256
-0.292163,0.343425,-0.293377
-0.305098,0.341282,-0.295743
-0.317343,0.34535,-0.302355
-0.325848,0.34531,-0.307247
-0.337547,0.34863,-0.311978
-0.350727,0.341886,-0.314921
-0.358659,0.343023,-0.321125
-0.361364,0.338792,-0.327587
-0.371662,0.329556,-0.32915
-0.376467,0.331944,-0.337006
-0.375433,0.324624,-0.344342
-0.379092,0.322104,-0.346929
-0.383462,0.310116,-0.352882
-0.384557,0.300229,-0.357188
-0.380558,0.292417,-0.363021
-0.380267,0.277231,-0.370169
-0.374785,0.260673,-0.379767
-0.373736,0.247008,-0.386816
-0.367048,0.230495,-0.39462
-0.360483,0.215504,-0.403377
-0.351383,0.192433,-0.403635
-0.344361,0.166001,-0.418538
-0.338629,0.148422,-0.424315
-0.327337,0.129568,-0.431332
-0.318487,0.107131,-0.43962
-0.308363,0.084377,-0.44806
-0.297141,0.061166,-0.455295
-0.286064,0.041453,-0.461441
-0.276348,0.023975,-0.469044
-0.265062,-0.001884,-0.4742
-0.24948,-0.023797,-0.481398
-0.241168,-0.042243,-0.487651
-0.225806,-0.058813,-0.493334
-0.211145,-0.075306,-0.496997
-0.19743,-0.090003,-0.501682
-0.192584,-0.096104,-0.503065
-0.176008,-0.104888,-0.502019
-0.168586,-0.106359,-0.507441
-0.160182,-0.110342,-0.507456
-0.153181,-0.110759,-0.506048
-0.147665,-0.104807,-0.507647
-0.137131,-0.103137,-0.499949
-0.130555,-0.093412,-0.496946
-0.124781,-0.083023,-0.49181
-0.120313,-0.074007,-0.488657
-0.105792,-0.063038,-0.482637
-0.097612,-0.054307,-0.480236
-0.09084,-0.043203,-0.474903
-0.081477,-0.036779,-0.464885
-0.081271,-0.02685,-0.460431
-0.069639,-0.024676,-0.454266
-0.062494,-0.017729,-0.450949
-0.054038,-0.016038,-0.441797
-0.048065,-0.024739,-0.437644
-0.044596,-0.029832,-0.435518
-0.036609,-0.03933,-0.434148
-0.030637,-0.048278,-0.4291
-0.02283,-0.05931,-0.429766
-0.021328,-0.073037,-0.427935
-0.016698,-0.093322,-0.425915
-0.012265,-0.110342,-0.427698
-0.00941,-0.129379,-0.426996
-0.011235,-0.153923,-0.42914
-0.01258,-0.172398,-0.429994
-0.009145,-0.195248,-0.429763
-0.01395,-0.213313,-0.428949
-0.014785,-0.236216,-0.433862
-0.022487,-0.252119,-0.433619
-0.028117,-0.26481,-0.431314
-0.033417,-0.284849,-0.430615
-0.038761,-0.298771,-0.428772
-0.0495,-0.314428,-0.428064
-0.057936,-0.321057,-0.425734
-0.068599,-0.328195,-0.421344
-0.077194,-0.337434,-0.415506
-0.08954,-0.340483,-0.40278
-0.101534,-0.345893,-0.400056
-0.109303,-0.349127,-0.389542
-0.11697,-0.349711,-0.378576
-0.130931,-0.35222,-0.365825
-0.139211,-0.353262,-0.356661
-0.145784,-0.351846,-0.340207
-0.158006,-0.353313,-0.326552
-0.166743,-0.349139,-0.315276
-0.17698,-0.354636,-0.298838
-0.183454,-0.351805,-0.283344
-0.188938,-0.356489,-0.267002
-0.192097,-0.355607,-0.252034
-0.194892,-0.355259,-0.23662
-0.193043,-0.360444,-0.221786
-0.195248,-0.361268,-0.205188
-0.192271,-0.359945,-0.191659
-0.187799,-0.36642,-0.179826
-0.185734,-0.366099,-0.163107
-0.178048,-0.370744,-0.150156
-0.165176,-0.373206,-0.140207
-0.156088,-0.380225,-0.126062
-0.148438,-0.382991,-0.120425
-0.13383,-0.387117,-0.110321
-0.127368,-0.385605,-0.104634
-0.108354,-0.389786,-0.098456
-0.094013,-0.391354,-0.091526
-0.074817,-0.390811,-0.088869
-0.060326,-0.393891,-0.084534
-0.046302,-0.389756,-0.08394
-0.024559,-0.38915,-0.082971
-0.009605,-0.388324,-0.077939
0.007667,-0.3821,-0.080243
0.026197,-0.381634,-0.080037
0.047947,-0.376274,-0.08065
0.069212,-0.373299,-0.081973
0.081753,-0.364028,-0.083853
0.103984,-0.354248,-0.086913
0.118811,-0.349917,-0.087553
0.135336,-0.332375,-0.087319
0.151473,-0.329471,-0.092535
0.166591,-0.315206,-0.093096
0.18103,-0.298405,-0.094368
0.199588,-0.289044,-0.095899
0.208247,-0.267907,-0.100534
0.21599,-0.257488,-0.102928
0.229227,-0.246236,-0.105384
0.238333,-0.228782,-0.107661
0.245499,-0.219537,-0.10667
0.252994,-0.202994,-0.112949
0.257198,-0.19559,-0.111815
0.259023,-0.180998,-0.118302
0.257569,-0.170389,-0.118688
0.25766,-0.157492,-0.123787
0.25444,-0.146629,-0.122024
0.254653,-0.139032,-0.123242
0.24602,-0.129458,-0.123219
0.245314,-0.123248,-0.125049
0.233006,-0.112766,-0.12843
0.225336,-0.107813,-0.128801
0.218125,-0.099306,-0.124946
0.203168,-0.095236,-0.123881
0.192336,-0.096242,-0.122806
0.183509,-0.093532,-0.122884
0.174428,-0.090697,-0.120406
0.160149,-0.093685,-0.118618
0.148838,-0.089419,-0.11469
0.126379,-0.086446,-0.113322
0.118741,-0.086653,-0.110686
0.104927,-0.08747,-0.10594
0.089052,-0.082462,-0.104228
0.07702,-0.082909,-0.096533
0.060644,-0.079204,-0.092629
0.048558,-0.079328,-0.084762
0.037176,-0.081089,-0.085333
0.023665,-0.081813,-0.078069
0.007681,-0.079922,-0.073361
-0.003226,-0.079064,-0.064409
-0.012918,-0.082292,-0.057597
-0.022489,-0.082769,-0.051174
-0.032933,-0.086245,-0.048524
-0.042099,-0.08731,-0.042783
-0.047322,-0.086066,-0.039959
-0.054064,-0.086315,-0.033674
-0.058708,-0.092548,-0.032485
-0.066531,-0.091644,-0.027879
-0.066558,-0.097485,-0.025488
-0.067927,-0.096436,-0.016899
-0.070328,-0.099377,-0.014472
-0.074418,-0.099868,-0.01141
-0.078234,-0.10588,-0.003219
-0.078832,-0.100777,-0.001909
-0.076188,-0.102353,0.003406
-0.074263,-0.098346,0.008299
-0.080246,-0.101052,0.016782
-0.083283,-0.099148,0.020418
-0.070259,-0.098325,0.024986
-0.071128,-0.094384,0.02828
-0.068825,-0.096516,0.034685
-0.069278,-0.092457,0.039969
-0.066336,-0.090215,0.047863
-0.064716,-0.089087,0.05348
-0.061573,-0.082713,0.059559
-0.058389,-0.079902,0.063402
-0.056608,-0.075389,0.073073
-0.048868,-0.071974,0.078493
-0.050974,-0.064205,0.085854
-0.047921,-0.058098,0.093267
-0.047015,-0.050093,0.099979
-0.044836,-0.050738,0.105693
-0.042282,-0.04088,0.112551
-0.041288,-0.04071,0.121202
-0.039475,-0.028238,0.121144
-0.042602,-0.020067,0.131341
-0.039332,-0.014655,0.138464
-0.038931,-0.008036,0.146965
-0.042664,-0.001468,0.151608
-0.044167,0.011902,0.159646
-0.04427,0.021442,0.164654
-0.04577,0.0337,0.16877
-0.051732,0.042621,0.176934
-0.054485,0.051778,0.186571
-0.055751,0.063653,0.189454
-0.058289,0.071966,0.197048
-0.060953,0.079677,0.201067
-0.066161,0.087027,0.201624
-0.07638,0.096571,0.210439
-0.074074,0.102445,0.214817
-0.07589,0.110837,0.216004
-0.082137,0.118227,0.224025
-0.084357,0.125473,0.228389
-0.086209,0.125437,0.231738
-0.088993,0.127482,0.235247
-0.090654,0.132228,0.239829
-0.097165,0.137084,0.243372
-0.101559,0.139195,0.246023
-0.102514,0.141042,0.247087
-0.102055,0.138543,0.247348
-0.106969,0.140069,0.253431
-0.110385,0.139292,0.247506
-0.110626,0.134952,0.256456
-0.11463,0.133168,0.257648
-0.114444,0.131816,0.257234
-0.117078,0.127653,0.265042
-0.120515,0.124838,0.262886
-0.123093,0.11633,0.260254
-0.124905,0.115792,0.266441
-0.129163,0.106549,0.267252
-0.133061,0.10427,0.267944
-0.133717,0.101168,0.26601
-0.137974,0.097192,0.263336
-0.143245,0.091841,0.267489
-0.149092,0.090571,0.268465
-0.152613,0.082343,0.272755
-0.15609,0.08684,0.268891
-0.161712,0.081975,0.270822
-0.169942,0.077891,0.267955
-0.1746,0.081504,0.272273
-0.18066,0.083777,0.272097
-0.186479,0.082726,0.272474
-0.189334,0.08299,0.272148
-0.196911,0.086767,0.272217
-0.200465,0.084756,0.274659
-0.202315,0.087722,0.270935
-0.205742,0.094184,0.274577
-0.210996,0.092451,0.270618
-0.207473,0.095483,0.272921
-0.21258,0.099803,0.270057
-0.210485,0.106511,0.268743
-0.211924,0.106723,0.267393
-0.213556,0.114099,0.264154
-0.21214,0.120061,0.261565
-0.205332,0.124422,0.262154
-0.201193,0.131544,0.258424
-0.199446,0.133551,0.254182
-0.194025,0.140002,0.251663
-0.189574,0.14186,0.249884
-0.18013,0.148845,0.247351
-0.177269,0.155056,0.241993
-0.166364,0.154024,0.23765
-0.157003,0.160883,0.236704
-0.148334,0.166325,0.233125
-0.137159,0.168208,0.230404
-0.12487,0.171105,0.228066
-0.112119,0.176016,0.225351
-0.103062,0.177187,0.222091
-0.092779,0.175872,0.218434
-0.083137,0.171549,0.217346
-0.09156,0.187708,0.205768
-0.116205,0.191622,0.21114
-0.137593,0.206213,0.215109
-0.139685,0.207844,0.217817
-0.136967,0.212028,0.216026
-0.145954,0.215905,0.208426
-0.161748,0.222398,0.209395
-0.181052,0.22488,0.215323
-0.188433,0.224987,0.219866
-0.182328,0.220113,0.226719
-0.173044,0.207783,0.230709
-0.151502,0.191509,0.240875
-0.12705,0.178342,0.24441
-0.095606,0.156315,0.25279
-0.062057,0.132791,0.252339
-0.036429,0.134579,0.262045
-0.015636,0.12225,0.266037
-0.000702,0.094,0.268222
0.023196,0.084769,0.262064
0.050033,0.084808,0.261069
0.081863,0.085916,0.263891
0.109624,0.070692,0.257014
0.129221,0.063837,0.273813
0.151081,0.076727,0.271005
0.145925,0.129912,0.283258
0.151563,0.082385,0.283278
0.15895,0.071483,0.27483
0.153942,0.123668,0.275233
0.141931,0.155733,0.277594
0.133113,0.181114,0.265563
0.121378,0.184337,0.251741
0.115912,0.185882,0.217473
0.136783,0.203522,0.164243
0.169062,0.214069,0.120928
0.218051,0.203856,0.136622
0.265174,0.194099,0.183236
0.302931,0.169673,0.212274
0.315502,0.163309,0.220817
0.313389,0.167143,0.218824
0.301243,0.173064,0.21446
0.27544,0.171226,0.202275
0.261443,0.177657,0.194526
0.249211,0.187806,0.192087
0.236055,0.18341,0.192875
0.215248,0.183251,0.195087
0.194597,0.177633,0.193021
0.169972,0.172625,0.192709
0.154542,0.163584,0.190281
0.13722,0.157047,0.186083
0.136281,0.144298,0.183503
0.138976,0.128864,0.181466
0.150379,0.105555,0.179306
0.158947,0.086451,0.175109
0.173115,0.067308,0.176435
0.181674,0.045695,0.176203
0.182588,0.024808,0.177019
0.187615,0.0095,0.171632
0.194227,-0.011376,0.171495
0.203901,-0.028788,0.170798
0.211183,-0.043383,0.172413
0.215624,-0.063828,0.174002
0.224943,-0.08114,0.172155
0.237771,-0.102983,0.175961
0.250634,-0.124671,0.174894
0.266018,-0.146252,0.179758
0.271311,-0.156163,0.182087
0.265176,-0.165682,0.186407
0.2198,-0.163402,0.191293
0.057431,-0.127833,0.194166
0.004417,-0.125514,0.196949
0.036915,-0.140816,0.204406
0.026848,-0.150813,0.20709
0.008432,-0.149749,0.214835
-0.004992,-0.15952,0.221843
-0.010833,-0.166827,0.221103
-0.026269,-0.170633,0.229434
-0.033148,-0.177817,0.237552
-0.033562,-0.182679,0.240817
-0.046559,-0.18968,0.244737
-0.050437,-0.195365,0.251342
-0.051399,-0.195833,0.252645
-0.053647,-0.204791,0.256626
-0.050038,-0.214081,0.257993
-0.054544,-0.22074,0.262754
-0.052379,-0.226645,0.261524
-0.046161,-0.230099,0.264802
-0.041236,-0.234453,0.266016
-0.030284,-0.24313,0.265694
-0.019047,-0.248629,0.264175
-0.004683,-0.25712,0.260674
0.011066,-0.262824,0.259725
0.024889,-0.267692,0.254802
0.04217,-0.270793,0.253826
0.055634,-0.276342,0.252087
0.073611,-0.282142,0.24857
0.091431,-0.285476,0.240547
0.105347,-0.288488,0.237554
0.129388,-0.289707,0.233216
0.149278,-0.285615,0.227716
0.164326,-0.285767,0.223535
0.184999,-0.282508,0.216048
0.200751,-0.281382,0.212056
0.22075,-0.276195,0.206973
0.236975,-0.269212,0.20114
0.257879,-0.264411,0.200861
0.268833,-0.258486,0.191317
0.286696,-0.2506,0.186902
0.302067,-0.239222,0.184418
0.316744,-0.228052,0.176729
0.331739,-0.221337,0.171595
0.341301,-0.209469,0.1646
0.349309,-0.196527,0.158424
0.35545,-0.182948,0.152507
0.361698,-0.169179,0.14909
0.367356,-0.159028,0.140495
0.368736,-0.14493,0.134256
0.367912,-0.133228,0.129882
0.371362,-0.121899,0.120083
0.372519,-0.111076,0.11851
0.364371,-0.101656,0.110091
0.358219,-0.093985,0.100353
0.363622,-0.086367,0.093604
0.354938,-0.083487,0.090649
0.347387,-0.074121,0.08205
0.337493,-0.06883,0.071447
0.328743,-0.060478,0.067618
0.323977,-0.054994,0.060207
0.313144,-0.051068,0.054481
0.29997,-0.04753,0.047005
0.289322,-0.042671,0.044922
0.283105,-0.038715,0.031631
0.268886,-0.038679,0.027766
0.257763,-0.038256,0.024443
0.244803,-0.033608,0.017475
0.234792,-0.033039,0.013564
0.226744,-0.031999,0.009624
0.210097,-0.026254,0.001804
0.200427,-0.020726,-0.001462
0.189652,-0.016986,0.000732
0.178532,-0.013299,-0.00613
0.166095,-0.008526,-0.004546
0.152593,-0.000206,-0.009884
0.140459,0.011628,-0.014105
0.131049,0.018249,-0.01746
0.121606,0.021157,-0.016828
0.110207,0.029073,-0.019211
0.098901,0.034822,-0.022924
0.091951,0.040079,-0.026327
0.086509,0.046051,-0.024325
0.07763,0.048246,-0.026095
0.067913,0.05315,-0.028592
0.060687,0.057479,-0.031166
0.056732,0.061924,-0.034656
0.052071,0.061331,-0.037166
0.045233,0.065476,-0.042087
0.037398,0.067342,-0.047237
0.033539,0.068548,-0.048934
0.029144,0.072386,-0.050396
0.020935,0.07352,-0.055373
0.016705,0.07273,-0.059591
0.009663,0.073784,-0.06256
0.000571,0.080102,-0.066839
-0.001132,0.081264,-0.070263
-0.008807,0.082549,-0.075264
-0.019309,0.086866,-0.080456
-0.023746,0.0894,-0.081964
-0.030643,0.09148,-0.083636
-0.036862,0.095195,-0.09128
-0.049035,0.102625,-0.092949
-0.049718,0.103786,-0.093611
-0.059417,0.110476,-0.096835
-0.06908,0.11789,-0.105761
-0.081219,0.125245,-0.103495
-0.088023,0.133417,-0.108339
-0.095835,0.14741,-0.11234
-0.101596,0.150324,-0.112864
-0.110906,0.164989,-0.117004
-0.1197,0.173493,-0.120234
-0.128357,0.179898,-0.121495
-0.133541,0.193159,-0.125058
-0.142206,0.197651,-0.128953
-0.150496,0.203078,-0.130005
-0.156467,0.213654,-0.131604
-0.161822,0.223035,-0.134541
-0.166808,0.230096,-0.13351
-0.174707,0.24092,-0.135644
-0.17467,0.248925,-0.140007
-0.179665,0.254747,-0.142561
-0.187522,0.262155,-0.144193
-0.187385,0.272239,-0.144817
-0.190978,0.28102,-0.150533
-0.193179,0.28416,-0.152555
-0.196797,0.289886,-0.156815
-0.202154,0.293357,-0.155222
-0.207655,0.300359,-0.16169
-0.207229,0.302949,-0.167318
-0.208898,0.301463,-0.169687
-0.206916,0.304043,-0.17188
-0.20888,0.303964,-0.178371
-0.213717,0.301733,-0.184543
-0.213957,0.300414,-0.188914
-0.213824,0.299595,-0.194392
-0.210877,0.295601,-0.199436
-0.217241,0.292958,-0.208306
-0.21527,0.294939,-0.215104
-0.213794,0.290404,-0.220399
-0.216761,0.290089,-0.23237
-0.216055,0.291196,-0.232731
-0.218807,0.286701,-0.244965
-0.219177,0.290748,-0.249676
-0.21752,0.286781,-0.257845
-0.218201,0.288474,-0.269601
-0.220026,0.291438,-0.273094
-0.224154,0.293622,-0.280462
-0.222947,0.29557,-0.289105
-0.223032,0.299314,-0.298047
-0.220756,0.29896,-0.299132
-0.223593,0.298836,-0.309181
-0.224611,0.297382,-0.317644
-0.222671,0.299674,-0.327161
-0.222459,0.30119,-0.334674
-0.223731,0.295968,-0.342025
-0.225109,0.294032,-0.347896
-0.22102,0.28208,-0.351943
-0.216813,0.277322,-0.364625
-0.215557,0.266255,-0.369217
-0.212127,0.26155,-0.375481
-0.208895,0.247283,-0.38625
-0.19957,0.22931,-0.390208
-0.196058,0.212757,-0.394613
-0.191012,0.19246,-0.403331
-0.184791,0.174581,-0.40594
-0.180557,0.147819,-0.408493
-0.169931,0.126014,-0.407861
-0.164087,0.107536,-0.415593
-0.160462,0.08618,-0.411174
-0.148717,0.061711,-0.416832
-0.143653,0.037957,-0.418666
-0.133567,0.016045,-0.420608
-0.126863,-0.004858,-0.422893
-0.120352,-0.021976,-0.419538
-0.1094,-0.03368,-0.42083
-0.105938,-0.049782,-0.424427
-0.099763,-0.069918,-0.424568
-0.093794,-0.081003,-0.424509
-0.087266,-0.09235,-0.423101
-0.082287,-0.105532,-0.426689
-0.073719,-0.116363,-0.424176
-0.070876,-0.123306,-0.423437
-0.065811,-0.131199,-0.418702
-0.061291,-0.138618,-0.419329
-0.053982,-0.136834,-0.41648
-0.04904,-0.145461,-0.414543
-0.048076,-0.138111,-0.412866
-0.041918,-0.140494,-0.409582
-0.036463,-0.135212,-0.398234
-0.031273,-0.127226,-0.395885
-0.025558,-0.12348,-0.391671
-0.018135,-0.119038,-0.38393
-0.008596,-0.115632,-0.374378
-0.000481,-0.107707,-0.366913
0.01033,-0.101021,-0.355244
0.018872,-0.099394,-0.347976
0.028779,-0.089498,-0.337379
0.038946,-0.091638,-0.328572
0.052442,-0.087115,-0.320721
0.066832,-0.08782,-0.312312
0.07403,-0.08411,-0.300764
0.082336,-0.08598,-0.294603
0.098256,-0.082815,-0.287424
0.108942,-0.0825,-0.283387
0.11703,-0.089951,-0.274728
0.124343,-0.092027,-0.271095
0.131858,-0.097075,-0.264604
0.136805,-0.102882,-0.260901
0.14236,-0.106905,-0.258411
0.146195,-0.114417,-0.259507
0.149288,-0.118242,-0.258423
0.148816,-0.124836,-0.258462
0.145658,-0.127627,-0.25835
0.143173,-0.125276,-0.262231
0.133161,-0.132619,-0.263129
0.130471,-0.128552,-0.26866
0.118236,-0.130638,-0.267722
0.102376,-0.1277,-0.273161
0.091591,-0.128832,-0.275747
0.083622,-0.125635,-0.279602
0.069786,-0.122754,-0.281698
0.049012,-0.119415,-0.285532
0.035001,-0.115375,-0.288744
0.01672,-0.115258,-0.293602
0.003549,-0.112201,-0.29448
-0.013162,-0.110489,-0.294547
-0.036447,-0.11083,-0.295016
-0.052641,-0.112601,-0.297377
-0.069113,-0.109206,-0.297923
-0.086473,-0.108403,-0.295028
-0.106597,-0.108729,-0.292143
-0.125612,-0.112827,-0.291245
-0.144342,-0.111398,-0.291742
-0.157087,-0.107856,-0.283526
-0.17498,-0.107464,-0.284007
-0.193165,-0.107762,-0.277831
-0.207965,-0.11612,-0.273542
-0.214498,-0.115024,-0.273739
-0.228572,-0.117111,-0.265627
-0.236496,-0.120565,-0.263898
-0.246884,-0.116384,-0.266275
-0.254115,-0.124915,-0.265087
-0.256096,-0.124277,-0.261071
-0.258707,-0.127763,-0.262126
-0.2581,-0.12919,-0.25873
-0.249664,-0.133422,-0.263172
-0.248343,-0.133793,-0.267477
-0.244576,-0.140223,-0.26661
-0.236499,-0.144917,-0.269458
-0.224435,-0.14863,-0.273654
-0.21265,-0.149424,-0.27958
-0.202794,-0.156383,-0.285518
-0.187212,-0.162825,-0.291064
-0.176853,-0.165471,-0.29753
-0.15886,-0.165664,-0.306952
-0.145324,-0.171429,-0.312595
-0.129469,-0.171849,-0.321168
-0.116569,-0.175534,-0.328431
-0.101976,-0.177184,-0.341423
-0.082241,-0.173242,-0.347403
-0.064881,-0.169709,-0.358728
-0.050175,-0.16287,-0.36729
-0.01919,-0.150444,-0.376134
-0.011072,-0.147605,-0.385751
-0.007595,-0.144303,-0.398415
0.00974,-0.138143,-0.405076
0.012166,-0.129123,-0.412029
0.018235,-0.11867,-0.418074
0.038343,-0.110275,-0.420147
0.040821,-0.09605,-0.425398
0.053949,-0.079304,-0.428802
0.06775,-0.066943,-0.432129
0.078052,-0.056246,-0.434104
0.070965,-0.05575,-0.440139
0.082221,-0.042693,-0.444236
0.086314,-0.019366,-0.443843
0.088433,-0.000104,-0.446527
0.095255,-0.010757,-0.447017
0.093318,-0.024779,-0.447898
0.076195,-0.007886,-0.446817
0.089168,0.00748,-0.441512
0.098691,0.024477,-0.443342
0.089977,0.029535,-0.437482
0.080804,0.032102,-0.435685
0.078697,0.036698,-0.432622
0.068719,0.045273,-0.426285
0.070273,0.043278,-0.419077
0.063054,0.047498,-0.414844
0.056814,0.052441,-0.410306
0.051755,0.047909,-0.397417
0.047453,0.050356,-0.395288
0.038935,0.048179,-0.385475
0.03052,0.050039,-0.373717
0.019085,0.049918,-0.373104
0.011661,0.047485,-0.362444
0.010981,0.049401,-0.351767
0.007126,0.048021,-0.344671
-0.000246,0.04537,-0.334546
-0.003377,0.043385,-0.321881
-0.008826,0.039176,-0.316027
-0.012778,0.036811,-0.306588
-0.017463,0.034288,-0.302047
-0.029308,0.02782,-0.292026
-0.032523,0.023969,-0.285995
-0.038186,0.018016,-0.275476
-0.042869,0.012701,-0.270912
-0.047967,0.008809,-0.259665
-0.052024,-0.000703,-0.25226
-0.05343,-0.006765,-0.244403
-0.055574,-0.017853,-0.232214
-0.05707,-0.023416,-0.223757
-0.057147,-0.033475,-0.220636
-0.054987,-0.041378,-0.214103
-0.05444,-0.050671,-0.20238
-0.055042,-0.06026,-0.201486
-0.058971,-0.06893,-0.190592
-0.050347,-0.075591,-0.185344
-0.051124,-0.085099,-0.178367
-0.046711,-0.09269,-0.175729
-0.046539,-0.099087,-0.167966
-0.044428,-0.10054,-0.161149
-0.035469,-0.111359,-0.157417
-0.037268,-0.116271,-0.151585
-0.034349,-0.118192,-0.147524
-0.030556,-0.123219,-0.141923
-0.02573,-0.122517,-0.139761
-0.02519,-0.129204,-0.132252
-0.025794,-0.130029,-0.129206
-0.02165,-0.131826,-0.122766
-0.019769,-0.129271,-0.116676
-0.01484,-0.129646,-0.113901
-0.014897,-0.131339,-0.10702
-0.015362,-0.131728,-0.107881
-0.013633,-0.129344,-0.099589
-0.008641,-0.125794,-0.102161
-0.009228,-0.128061,-0.094585
-0.009155,-0.122075,-0.094064
-0.008565,-0.117446,-0.090395
-0.005978,-0.114478,-0.089024
-0.006467,-0.113356,-0.088498
0.000899,-0.104818,-0.086571
-0.002114,-0.098693,-0.083445
-0.000158,-0.094336,-0.080425
-0.005314,-0.092119,-0.080475
0.005921,-0.08768,-0.082609
0.00061,-0.084959,-0.084449
-0.000207,-0.049898,-0.077099
0.01254,-0.113399,-0.08335
0.004401,-0.083691,-0.084656
-0.01559,-0.016163,-0.081791
-0.011514,-0.032143,-0.084303
0.011044,-0.073381,-0.082654
0.012092,-0.084622,-0.084502
-0.001942,-0.077641,-0.081347
-0.019568,-0.026776,-0.083923
-0.007689,-0.022647,-0.077967
0.00893,-0.022224,-0.080174
0.003684,-0.025928,-0.079209
0.002503,-0.027227,-0.079666
0.009301,-0.022425,-0.079724
0.000641,-0.016652,-0.076568
-0.00457,-0.023723,-0.075388
-0.007528,-0.019136,-0.076987
-0.014827,-0.013527,-0.075114
-0.0113,-0.017124,-0.0735
-0.016049,-0.014855,-0.07264
-0.020218,-0.014338,-0.065731
-0.027713,-0.009315,-0.065112
-0.033589,-0.006421,-0.062618
-0.03376,-0.002621,-0.061569
-0.035192,0.00241,-0.059119
-0.040783,0.002597,-0.054212
-0.046298,0.010491,-0.053743
-0.0514,0.006596,-0.049116
-0.057623,0.01254,-0.05272
-0.061892,0.016458,-0.045933
-0.06302,0.01564,-0.041676
-0.068669,0.015672,-0.039969
-0.068474,0.020915,-0.039849
-0.075193,0.022254,-0.033945
-0.077444,0.027039,-0.028409
-0.082676,0.025412,-0.028799
-0.079854,0.029252,-0.024733
-0.0817,0.029749,-0.02016
-0.084543,0.036494,-0.016421
-0.085501,0.040344,-0.016409
-0.086348,0.041679,-0.011195
-0.084065,0.046787,-0.009421
-0.077942,0.049628,-0.00736
-0.076774,0.054514,-0.006525
-0.076167,0.064241,-0.000705
-0.07025,0.067676,-0.00163
-0.062834,0.070738,0.002446
-0.060336,0.081778,0.004555
-0.05089,0.092933,0.005464
-0.054596,0.097425,0.015026
-0.046407,0.116307,0.016405
-0.037628,0.123168,0.01998
-0.03742,0.137352,0.022826
-0.037245,0.153736,0.027294
-0.035731,0.167971,0.035689
-0.027618,0.182215,0.036515
-0.024608,0.196386,0.039352
-0.018048,0.208681,0.043397
-0.013378,0.224154,0.046862
-0.007544,0.23801,0.054113
-0.001991,0.246372,0.056712
0.003334,0.260793,0.062249
0.009289,0.273199,0.069373
0.014522,0.283409,0.072365
0.022469,0.293712,0.07483
0.028517,0.308744,0.084404
0.032526,0.31727,0.088751
0.038416,0.32742,0.093954
0.04255,0.338503,0.102136
0.043302,0.350092,0.110842
0.048467,0.360142,0.117614
0.0476,0.361476,0.1255
0.049727,0.374401,0.136901
0.049131,0.379676,0.145791
0.048544,0.384786,0.154179
0.045986,0.38768,0.16491
0.039228,0.390873,0.17448
0.025909,0.394892,0.186653
0.013649,0.394917,0.197028
0.007216,0.398251,0.208942
0.009822,0.390566,0.222284
0.00552,0.388434,0.232964
0.002254,0.388717,0.241593
-0.007585,0.383896,0.25363
-0.022091,0.38084,0.259789
-0.026844,0.376166,0.268625
-0.033277,0.377174,0.276081
-0.036605,0.37455,0.283667
-0.038497,0.370153,0.289803
-0.040345,0.369202,0.295232
-0.039612,0.369216,0.298218
-0.041661,0.370245,0.296887
-0.048463,0.373768,0.296373
-0.039524,0.372546,0.301635
-0.035828,0.373928,0.295996
-0.026093,0.376522,0.292153
-0.014703,0.377879,0.285695
-0.008972,0.38361,0.280466
0.003166,0.383081,0.274865
0.01693,0.394186,0.260934
0.029185,0.392764,0.254317
0.030253,0.397404,0.239692
0.028167,0.398796,0.224853
0.027712,0.410336,0.210201
0.015491,0.421103,0.192896
-0.004117,0.42704,0.181208
-0.025082,0.434876,0.162659
-0.067319,0.455866,0.142185
-0.158259,0.477319,0.123809
-0.164969,0.4819,0.107992
-0.143091,0.477002,0.085654
-0.145802,0.476954,0.069832
-0.152263,0.465552,0.051165
-0.146735,0.459891,0.032311
-0.137731,0.446982,0.014509
-0.137477,0.428718,-0.003886
-0.134295,0.411824,-0.015002
-0.125571,0.392365,-0.034179
-0.117335,0.370304,-0.047244
-0.116362,0.342416,-0.064451
-0.107123,0.320641,-0.078121
-0.09734,0.297096,-0.094105
-0.085337,0.265285,-0.10695
-0.080301,0.242168,-0.119816
-0.075182,0.216199,-0.12874
-0.066842,0.18741,-0.140573
-0.057668,0.157443,-0.148694
-0.055392,0.127117,-0.15538
-0.047781,0.098196,-0.162289
-0.042939,0.070097,-0.171475
-0.033948,0.041028,-0.170968
-0.030521,0.018968,-0.17636
-0.02784,-0.008105,-0.176515
-0.02609,-0.032701,-0.174512
-0.025046,-0.051734,-0.181796
-0.02424,-0.078167,-0.177965
-0.024919,-0.097293,-0.175855
-0.022411,-0.119413,-0.168528
-0.019585,-0.1378,-0.166811
-0.017044,-0.163433,-0.163773
-0.01248,-0.186993,-0.156389
-0.017151,-0.203654,-0.14562
-0.018425,-0.22019,-0.139146
-0.019257,-0.238493,-0.12852
-0.013651,-0.254777,-0.124002
-0.01072,-0.275053,-0.111912
-0.008732,-0.282733,-0.099759
-0.00757,-0.29342,-0.093989
-0.001089,-0.305739,-0.083829
0.003595,-0.317846,-0.077015
0.003649,-0.327092,-0.073451
0.007915,-0.329445,-0.064799
0.012303,-0.334515,-0.052804
0.016636,-0.332852,-0.048392
0.022472,-0.336438,-0.043757
0.02592,-0.333798,-0.035627
0.026169,-0.334807,-0.032045
0.050833,-0.331464,-0.02701
0.054645,-0.327554,-0.027746
0.065082,-0.330202,-0.022791
0.075743,-0.324003,-0.021915
0.089023,-0.315471,-0.021537
0.101531,-0.309359,-0.020227
0.117227,-0.301644,-0.019599
0.132928,-0.303392,-0.020869
0.150795,-0.291961,-0.022313
0.172295,-0.286639,-0.02408
0.187396,-0.285552,-0.023405
0.207024,-0.280786,-0.028217
0.224318,-0.276265,-0.029385
0.243162,-0.275996,-0.031479
0.260409,-0.270915,-0.035942
0.28216,-0.267331,-0.041831
0.29799,-0.265962,-0.046618
0.320023,-0.264066,-0.050575
0.336791,-0.256109,-0.058219
0.354656,-0.256483,-0.063191
0.371463,-0.255181,-0.067766
0.389115,-0.254568,-0.072862
0.40013,-0.252688,-0.075686
0.415439,-0.249918,-0.084631
0.428384,-0.250848,-0.088143
0.438481,-0.245526,-0.094222
0.448739,-0.239287,-0.097398
0.457699,-0.233972,-0.105703
0.463071,-0.231828,-0.107665
0.467055,-0.222567,-0.114448
0.464933,-0.215597,-0.118281
0.466286,-0.206347,-0.117677
0.470647,-0.19943,-0.121692
0.459982,-0.18772,-0.121705
0.45199,-0.183283,-0.124928
0.443687,-0.172572,-0.126666
0.436536,-0.164637,-0.128123
0.42393,-0.157897,-0.127646
0.410619,-0.147887,-0.128819
0.398862,-0.138134,-0.130506
0.386732,-0.122631,-0.128926
0.373841,-0.119361,-0.128545
0.357991,-0.107907,-0.127146
0.336897,-0.100942,-0.124773
0.325667,-0.085706,-0.122707
0.306752,-0.079139,-0.124311
0.287693,-0.067051,-0.125416
0.265463,-0.062139,-0.123501
0.245526,-0.049749,-0.121005
0.228081,-0.041464,-0.124112
0.205011,-0.031145,-0.120445
0.185812,-0.027207,-0.119267
0.162693,-0.019857,-0.119251
0.143168,-0.014251,-0.119013
0.122476,-0.007865,-0.12103
0.102129,-0.003004,-0.122216
0.083918,0.002065,-0.123186
0.069011,0.003543,-0.127345
0.053284,0.010776,-0.127532
0.035229,0.012179,-0.132477
0.019636,0.017595,-0.139202
0.007395,0.019848,-0.145653
-0.004987,0.019682,-0.148806
-0.023295,0.022296,-0.153601
-0.037023,0.024133,-0.159702
-0.047642,0.022887,-0.168775
-0.058267,0.024544,-0.173859
-0.065085,0.017605,-0.176929
-0.076206,0.02022,-0.188404
-0.081863,0.01798,-0.196353
-0.096892,0.017076,-0.206946
-0.098987,0.015011,-0.212899
-0.108652,0.01223,-0.222868
-0.113852,0.014503,-0.229958
-0.120807,0.01457,-0.240676
-0.12777,0.014742,-0.250646
-0.129181,0.016887,-0.260094
-0.134547,0.014172,-0.271931
-0.142075,0.017611,-0.280775
-0.146154,0.020447,-0.288615
-0.152832,0.026282,-0.30012
-0.159553,0.029216,-0.308643
-0.163507,0.03342,-0.317699
-0.169277,0.03914,-0.328119
-0.177705,0.042952,-0.333287
-0.181787,0.04831,-0.340964
-0.189474,0.059582,-0.351907
-0.193013,0.063922,-0.360036
-0.201988,0.069653,-0.364758
-0.205867,0.081495,-0.375457
-0.208575,0.087609,-0.384586
-0.21219,0.098252,-0.38874
-0.221773,0.106465,-0.399281
-0.224122,0.111715,-0.409494
-0.225395,0.119806,-0.41789
-0.231364,0.125644,-0.423452
-0.230716,0.131292,-0.434114
-0.237894,0.140522,-0.443593
-0.236294,0.148486,-0.455348
-0.236881,0.155311,-0.463672
-0.23801,0.157069,-0.474051
-0.23655,0.159962,-0.483415
-0.238395,0.165961,-0.494045
-0.231503,0.168834,-0.50402
-0.232895,0.171442,-0.513916
-0.228821,0.170375,-0.524148
-0.227717,0.177912,-0.539218
-0.223184,0.178,-0.546607
-0.217757,0.185794,-0.561452
-0.209342,0.183345,-0.573368
-0.204968,0.182015,-0.583033
-0.197119,0.184164,-0.597291
-0.191098,0.185216,-0.609337
-0.180869,0.18151,-0.617777
-0.174914,0.17945,-0.627507
-0.164692,0.178348,-0.641076
-0.155523,0.175416,-0.654037
-0.145242,0.171825,-0.662348
-0.135437,0.169248,-0.673579
-0.13013,0.165447,-0.68285
-0.1182,0.167265,-0.691728
-0.106351,0.158038,-0.702517
-0.097719,0.151948,-0.710382
-0.090876,0.153317,-0.724273
-0.082302,0.147375,-0.727615
-0.074023,0.151543,-0.732741
-0.066276,0.14571,-0.740044
-0.063533,0.153305,-0.741267
-0.058736,0.151918,-0.745201
-0.056759,0.159981,-0.7494
-0.052057,0.165343,-0.750987
-0.0504,0.172185,-0.750202
-0.0497,0.184301,-0.747599
-0.044699,0.197805,-0.748208
-0.045356,0.211088,-0.749226
-0.04082,0.224627,-0.746982
-0.048038,0.243046,-0.74679
-0.043924,0.25871,-0.739317
-0.044379,0.277021,-0.738798
-0.045928,0.293639,-0.738615
-0.041564,0.312074,-0.735085
-0.045094,0.330248,-0.733699
-0.038822,0.342526,-0.728326
-0.039147,0.358708,-0.726201
-0.038697,0.376124,-0.724897
-0.03484,0.381728,-0.721131
-0.03127,0.384975,-0.719462
-0.024703,0.383846,-0.717406
-0.023307,0.383794,-0.716531
-0.017905,0.376476,-0.714895
-0.017618,0.367377,-0.709698
-0.014403,0.353096,-0.710109
-0.010297,0.336977,-0.708664
-0.00916,0.322724,-0.712091
-0.014725,0.300296,-0.709941
-0.016767,0.27793,-0.710972
-0.020586,0.253128,-0.713046
-0.025527,0.232387,-0.712223
-0.029491,0.217801,-0.712468
-0.031208,0.195504,-0.715976
-0.040193,0.177606,-0.715044
-0.039124,0.155348,-0.712945
-0.054917,0.15055,-0.709379
-0.075763,0.151698,-0.700985
-0.085363,0.143912,-0.701726
-0.091712,0.147138,-0.692505
-0.104837,0.145578,-0.685424
-0.122479,0.147416,-0.677039
-0.140719,0.15431,-0.666423
-0.152399,0.160994,-0.652023
-0.167179,0.173948,-0.639591
-0.189705,0.194386,-0.630988
-0.203657,0.211971,-0.619595
-0.222194,0.224754,-0.602333
-0.238591,0.245764,-0.587489
-0.252205,0.263157,-0.574584
-0.267996,0.283492,-0.558983
-0.27667,0.296222,-0.540321
-0.285111,0.309707,-0.527085
-0.285867,0.316075,-0.513409
-0.291675,0.322937,-0.498457
-0.297073,0.324125,-0.486066
-0.299141,0.326293,-0.474262
-0.297134,0.322407,-0.467563
-0.294995,0.324414,-0.454171
-0.289553,0.311727,-0.44667
-0.284587,0.2952,-0.441442
-0.275229,0.276499,-0.435257
-0.267376,0.248843,-0.429428
-0.263757,0.225417,-0.427523
-0.24718,0.197581,-0.423713
-0.231394,0.168725,-0.426176
-0.208743,0.128467,-0.425974
-0.199139,0.101257,-0.428785
-0.192015,0.066452,-0.430977
-0.170811,0.028264,-0.432545
-0.147851,-0.005513,-0.434862
-0.13451,-0.036111,-0.439294
-0.127323,-0.067486,-0.440799
-0.122496,-0.094451,-0.442921
-0.105698,-0.120632,-0.4457
-0.098571,-0.145364,-0.448631
-0.096028,-0.160067,-0.454827
-0.09336,-0.175414,-0.45813
-0.090125,-0.189255,-0.466366
-0.089481,-0.197114,-0.469758
-0.086418,-0.207949,-0.475824
-0.087026,-0.213604,-0.484528
-0.084615,-0.215213,-0.489736
-0.082193,-0.219047,-0.49641
-0.087042,-0.216202,-0.503919
-0.088875,-0.210731,-0.509426
-0.08872,-0.199623,-0.51668
-0.086576,-0.197515,-0.522703
-0.089276,-0.184099,-0.52534
-0.094034,-0.184731,-0.529254
-0.108062,-0.18383,-0.534405
-0.110181,-0.168434,-0.537476
-0.117776,-0.147629,-0.535752
-0.129409,-0.12643,-0.538287
-0.127637,-0.128752,-0.539312
-0.108331,-0.128074,-0.53356
-0.103974,-0.122997,-0.535297
-0.093865,-0.12631,-0.537837
-0.087851,-0.122015,-0.533287
-0.078699,-0.108908,-0.53003
-0.074202,-0.099765,-0.528187
-0.068815,-0.097956,-0.525017
-0.055051,-0.101177,-0.519994
-0.038429,-0.099722,-0.5169
-0.025062,-0.093728,-0.510332
-0.000806,-0.086258,-0.507818
0.02603,-0.085908,-0.503343
0.047139,-0.085451,-0.498125
0.071364,-0.084937,-0.492473
0.097435,-0.086081,-0.48555
0.124959,-0.075643,-0.481263
0.149473,-0.06831,-0.47304
0.176331,-0.067881,-0.463782
0.20017,-0.064428,-0.460903
0.229123,-0.061134,-0.45865
0.253581,-0.057036,-0.4519
0.278168,-0.052398,-0.444326
0.300046,-0.043218,-0.443207
0.318962,-0.034694,-0.44128
0.341646,-0.020735,-0.430054
0.3644,-0.014777,-0.429606
0.381064,-0.003731,-0.42094
0.39836,0.003827,-0.41555
0.422809,0.018642,-0.408128
0.441434,0.031324,-0.40338
0.45499,0.037537,-0.394945
0.468812,0.05018,-0.393273
0.477388,0.060955,-0.382301
0.493655,0.066205,-0.376943
0.503328,0.075058,-0.370303
0.508315,0.081674,-0.364274
0.513684,0.095802,-0.358345
0.529023,0.099888,-0.351569
0.536235,0.10642,-0.345129
0.538199,0.114929,-0.339943
0.542773,0.11976,-0.332961
0.545769,0.120913,-0.325377
0.546167,0.123409,-0.321028
0.547805,0.12197,-0.318956
0.540895,0.126367,-0.3123
0.537887,0.124707,-0.305426
0.533881,0.126971,-0.301825
0.525106,0.125765,-0.292273
0.515377,0.126483,-0.287491
0.508725,0.131486,-0.279997
0.501398,0.120496,-0.275561
0.490072,0.122578,-0.271025
0.477294,0.123472,-0.266503
0.464044,0.132243,-0.260218
0.452847,0.129648,-0.255412
0.443425,0.137021,-0.2481
0.426283,0.134499,-0.245081
0.411601,0.143539,-0.242704
0.397026,0.146047,-0.235274
0.380266,0.150538,-0.232568
0.370476,0.152827,-0.229162
0.34632,0.153912,-0.220817
0.332096,0.156737,-0.219011
0.315475,0.157519,-0.211345
0.298417,0.165252,-0.211133
0.282098,0.163306,-0.205769
0.262975,0.163247,-0.205201
0.247379,0.160676,-0.199184
0.231051,0.162306,-0.196964
0.216522,0.160854,-0.193575
0.194872,0.161148,-0.187041
0.181847,0.153749,-0.184669
0.167624,0.154331,-0.182524
0.146476,0.155216,-0.178908
0.132895,0.147162,-0.174558
0.116583,0.144517,-0.172079
0.097353,0.141143,-0.167857
0.083862,0.136096,-0.16478
0.070544,0.128073,-0.158393
0.053424,0.120538,-0.154141
0.038732,0.11147,-0.149073
0.024251,0.105997,-0.147322
0.009895,0.10184,-0.144273
-0.006998,0.098199,-0.142987
-0.022858,0.090494,-0.139418
-0.036713,0.085265,-0.139186
-0.054415,0.078519,-0.135739
-0.068854,0.073161,-0.133924
-0.084896,0.067077,-0.127599
-0.097583,0.063894,-0.128418
-0.108384,0.058746,-0.12833
-0.118017,0.055193,-0.131854
-0.13251,0.052901,-0.1316
-0.148191,0.049946,-0.132795
-0.161351,0.051001,-0.135235
-0.173834,0.04574,-0.140588
-0.193498,0.054344,-0.144465
-0.207098,0.058987,-0.146508
-0.222029,0.065214,-0.148205
-0.237863,0.063991,-0.151832
-0.248337,0.068746,-0.160098
-0.26429,0.064582,-0.169188
-0.27588,0.070762,-0.180502
-0.28103,0.067059,-0.196221
-0.287573,0.061058,-0.203151
-0.295772,0.057232,-0.200297
-0.304219,0.053691,-0.196746
-0.307418,0.047024,-0.185597
-0.314398,0.040881,-0.179258
-0.318842,0.0337,-0.175039
-0.322934,0.029898,-0.167452
-0.328858,0.019414,-0.162269
-0.327323,0.015584,-0.157218
-0.324994,0.004632,-0.157024
-0.330494,-0.004828,-0.160725
-0.33098,-0.004147,-0.162709
-0.332615,-0.00663,-0.168103
-0.33385,-0.013161,-0.176115
-0.329839,-0.015703,-0.180624
-0.330772,-0.022146,-0.180344
-0.329003,-0.021137,-0.175224
-0.322825,-0.018477,-0.159964
-0.318375,-0.025007,-0.150736
-0.312844,-0.023884,-0.129084
-0.308849,-0.020902,-0.117458
-0.295831,-0.019155,-0.106044
-0.289333,-0.019345,-0.089845
-0.278828,-0.01975,-0.074913
-0.268452,-0.01522,-0.065032
-0.262772,-0.014855,-0.053045
-0.252308,-0.003007,-0.039372
-0.23966,-0.002098,-0.030798
-0.229692,-0.000483,-0.021629
-0.221859,0.002373,-0.015128
-0.208326,0.007837,-0.005266
-0.196037,0.016514,0.004239
-0.187889,0.012317,0.011831
-0.178821,0.019612,0.02104
-0.167058,0.020572,0.031462
-0.154443,0.030547,0.045278
-0.149818,0.033528,0.058032
-0.144805,0.033347,0.070558
-0.131471,0.036251,0.084049
-0.128037,0.035927,0.095231
-0.117147,0.03679,0.105005
-0.106202,0.032515,0.122402
-0.098822,0.026738,0.135507
-0.086118,0.016218,0.152237
-0.074229,0.005337,0.169156
-0.064079,-0.0075,0.190645
-0.05821,-0.025778,0.206915
-0.045604,-0.041957,0.224649
-0.034754,-0.061089,0.245226
-0.02591,-0.082357,0.265106
-0.009058,-0.105752,0.288381
0.003117,-0.126411,0.304543
0.016228,-0.148799,0.32688
0.026218,-0.165044,0.351091
0.036892,-0.177953,0.369959
0.043546,-0.194892,0.386902
0.056586,-0.200507,0.406591
0.064809,-0.211756,0.418287
0.074536,-0.20736,0.436398
0.074805,-0.202075,0.451332
0.083027,-0.194184,0.460696
0.08572,-0.175682,0.469571
0.08594,-0.164029,0.477675
0.085454,-0.138035,0.483503
0.0783,-0.109211,0.483794
0.072847,-0.084886,0.483099
0.068348,-0.050518,0.476497
0.056801,-0.016336,0.465038
0.035153,0.024962,0.40671
0.019767,0.073557,0.27005
0.04699,0.096116,0.184054
0.055049,0.116035,0.196143
0.028405,0.139029,0.234447
0.018717,0.162885,0.264657
0.020828,0.185754,0.286197
0.032955,0.206813,0.302888
0.03197,0.225326,0.315211
0.030365,0.238568,0.323915
0.032324,0.24905,0.331012
0.038929,0.256712,0.323135
0.048734,0.260714,0.320067
0.051538,0.263367,0.315031
0.05186,0.260166,0.315129
0.056251,0.258041,0.305783
0.066749,0.250598,0.300825
0.074574,0.244053,0.288417
0.078083,0.234155,0.277967
0.081008,0.217495,0.264614
0.090865,0.206777,0.262878
0.100394,0.186003,0.255363
0.109311,0.169944,0.24771
0.117905,0.149717,0.242565
0.122327,0.137537,0.240328
0.128006,0.117866,0.239468
0.127608,0.101865,0.232755
0.12961,0.081315,0.233448
0.125314,0.071274,0.233053
0.122564,0.056212,0.232247
0.124038,0.047525,0.238337
0.120702,0.031733,0.237525
0.113123,0.021521,0.237166
0.108006,0.008854,0.241595
0.098077,-0.005086,0.243271
0.094488,-0.018209,0.248779
0.082087,-0.03026,0.250595
0.071631,-0.039677,0.255554
0.066938,-0.058095,0.262309
0.053891,-0.064254,0.264619
0.044238,-0.07858,0.270981
0.037228,-0.088315,0.279986
0.029141,-0.102733,0.284677
0.020237,-0.116654,0.288195
0.015513,-0.128978,0.2944
0.0041,-0.134884,0.302035
0.001701,-0.143078,0.30595
-0.007555,-0.155625,0.310258
-0.012076,-0.161871,0.318698
-0.019197,-0.163423,0.320926
-0.025482,-0.172976,0.325593
-0.03044,-0.176431,0.329054
-0.032325,-0.18418,0.332979
-0.036947,-0.187494,0.338603
-0.043178,-0.18978,0.33759
-0.039077,-0.195394,0.344608
-0.034866,-0.19356,0.340048
-0.032848,-0.204432,0.337485
-0.025396,-0.205132,0.330735
-0.018708,-0.20081,0.325037
-0.011376,-0.203486,0.314834
-0.0036,-0.205781,0.309511
0.009064,-0.20293,0.309818
0.011223,-0.205593,0.30377
0.020034,-0.198375,0.302004
0.024731,-0.192273,0.298455
0.035401,-0.187594,0.289392
0.036407,-0.178906,0.273528
0.039966,-0.174025,0.252322
0.05402,-0.174817,0.2311
0.076107,-0.176419,0.231128
0.08918,-0.173539,0.235958
0.09967,-0.16951,0.24359
0.113378,-0.160411,0.263227
0.126507,-0.161092,0.283251
0.131316,-0.158459,0.303774
0.140563,-0.154899,0.316942
0.151887,-0.154595,0.318494
0.167175,-0.154094,0.317601
0.179126,-0.15187,0.313184
0.190578,-0.140589,0.30869
0.195021,-0.141911,0.305813
0.203218,-0.134897,0.300067
0.208785,-0.129932,0.296871
0.213445,-0.126652,0.29792
0.212912,-0.116655,0.286325
0.212116,-0.110096,0.286084
0.213299,-0.102019,0.277526
0.211064,-0.092436,0.274525
0.206365,-0.087638,0.271661
0.205579,-0.07299,0.266808
0.199673,-0.061166,0.262018
0.193808,-0.052761,0.256336
0.189037,-0.040656,0.252288
0.174829,-0.028433,0.249328
0.165045,-0.019835,0.240139
0.158843,-0.005737,0.238162
0.148162,0.006766,0.238741
0.136762,0.019986,0.233193
0.126054,0.028957,0.228658
0.118241,0.036842,0.225414
0.105069,0.051335,0.222944
0.093312,0.060704,0.217388
0.082607,0.069784,0.21678
0.07421,0.083949,0.216582
0.068369,0.089879,0.210548
0.057685,0.096708,0.20778
0.047673,0.108632,0.204357
0.042386,0.112361,0.20253
0.034637,0.1228,0.194175
0.028212,0.123527,0.197386
0.023495,0.13447,0.191159
0.016595,0.138777,0.184945
0.013056,0.146245,0.187682
0.011427,0.153259,0.183006
0.007784,0.160766,0.176097
0.003012,0.169847,0.172959
-0.004452,0.176347,0.171273
-0.002606,0.185823,0.165508
-0.011306,0.190937,0.159004
-0.010011,0.19876,0.155751
-0.013672,0.198527,0.149059
-0.018029,0.20664,0.146053
-0.021681,0.209934,0.136488
-0.024472,0.214101,0.130414
-0.024606,0.213034,0.122093
-0.029878,0.213828,0.11441
-0.029145,0.211339,0.106312
-0.031184,0.211243,0.097024
-0.033516,0.206193,0.089874
-0.031738,0.20209,0.076205
-0.037436,0.2019,0.069522
-0.038983,0.200071,0.055864
-0.04479,0.196501,0.049239
-0.046821,0.198949,0.038711
-0.051829,0.196341,0.030013
-0.053623,0.204482,0.022795
-0.062789,0.200606,0.01398
-0.070143,0.208106,0.001132
-0.081137,0.212256,-0.01242
-0.088017,0.210337,-0.016361
-0.10061,0.220048,-0.022197
-0.107202,0.223906,-0.031942
-0.122811,0.234319,-0.042215
-0.136298,0.234861,-0.052451
-0.153463,0.239428,-0.062089
-0.166951,0.245003,-0.070652
-0.184736,0.250242,-0.077118
-0.200853,0.256143,-0.083496
-0.216497,0.263018,-0.090134
-0.227043,0.262214,-0.097287
-0.243147,0.264443,-0.103271
-0.257434,0.263938,-0.109549
-0.271417,0.265626,-0.109613
-0.280002,0.262391,-0.115132
-0.290418,0.263258,-0.117068
-0.299147,0.255867,-0.124952
-0.308616,0.249053,-0.126848
-0.311263,0.241444,-0.134568
-0.312647,0.233968,-0.132065
-0.318193,0.222316,-0.137945
-0.315993,0.208963,-0.138389
-0.317356,0.19478,-0.140846
-0.311299,0.187578,-0.141491
-0.308163,0.176124,-0.146998
-0.305681,0.166997,-0.150277
-0.298879,0.15808,-0.152235
-0.294794,0.149559,-0.153719
-0.29175,0.140271,-0.156641
-0.280549,0.13156,-0.155863
-0.279641,0.126859,-0.161636
-0.270385,0.126653,-0.161408
-0.258873,0.114822,-0.165138
-0.250471,0.11091,-0.167893
-0.242263,0.109609,-0.174896
-0.234479,0.101613,-0.179189
-0.218438,0.100773,-0.181566
-0.209497,0.098237,-0.188613
-0.196646,0.093821,-0.192374
-0.187084,0.088388,-0.201415
-0.172234,0.082388,-0.206052
-0.15787,0.074106,-0.211446
-0.146918,0.067615,-0.221463
-0.13022,0.05314,-0.227377
-0.11602,0.038146,-0.232124
-0.105362,0.03039,-0.239739
-0.091256,0.011598,-0.246453
-0.074515,0.001296,-0.252487
-0.060338,-0.013186,-0.260752
-0.047474,-0.022182,-0.266986
-0.03906,-0.031252,-0.274409
-0.027579,-0.041269,-0.278816
-0.014243,-0.046064,-0.279802
-0.004715,-0.052235,-0.290684
0.006858,-0.055999,-0.294361
0.021123,-0.061898,-0.30264
0.027096,-0.05964,-0.302485
0.033597,-0.065337,-0.304998
0.045481,-0.061482,-0.310427
0.05599,-0.066565,-0.3121
0.063928,-0.060728,-0.31393
0.067041,-0.054638,-0.314637
0.073447,-0.04919,-0.310962
0.081175,-0.041139,-0.312036
0.084754,-0.029539,-0.311348
0.082783,-0.015663,-0.308146
0.087527,-0.004771,-0.302508
0.08643,0.009008,-0.305524
0.079548,0.022458,-0.297309
0.057741,0.043143,-0.286764
0.039671,0.060091,-0.284632
0.030176,0.075986,-0.283927
0.028152,0.084903,-0.280216
0.043406,0.097176,-0.277023
0.054879,0.099774,-0.276469
0.062161,0.105671,-0.273615
0.057959,0.109776,-0.274302
0.057449,0.116586,-0.27605
0.053736,0.11769,-0.274405
0.058769,0.120013,-0.276329
0.066642,0.113068,-0.277798
0.073852,0.111067,-0.278434
0.085916,0.101929,-0.28089
0.096735,0.096747,-0.28674
0.107905,0.083993,-0.287811
0.112221,0.068332,-0.290063
0.111183,0.062174,-0.292225
0.09811,0.047638,-0.300622
0.085504,0.037644,-0.307077
0.073365,0.028596,-0.30745
0.064898,0.017167,-0.31157
0.055365,0.002397,-0.314689
0.044986,-0.019291,-0.319183
0.042411,-0.033453,-0.322236
0.043371,-0.048228,-0.321954
0.038392,-0.064692,-0.324635
0.033756,-0.081809,-0.321971
0.027124,-0.092274,-0.322534
0.01082,-0.101396,-0.32353
-0.009061,-0.110903,-0.318713
-0.021625,-0.116055,-0.315858
-0.036031,-0.118774,-0.314504
-0.045739,-0.127207,-0.310685
-0.058886,-0.133392,-0.309515
-0.068767,-0.133753,-0.304466
-0.080939,-0.141267,-0.296432
-0.093617,-0.148158,-0.292572
-0.105952,-0.150818,-0.285317
-0.115141,-0.155973,-0.281069
-0.12669,-0.163963,-0.273138
-0.138931,-0.168563,-0.268267
-0.1478,-0.17141,-0.262086
-0.152464,-0.182931,-0.254945
-0.160874,-0.189669,-0.252229
-0.163707,-0.201096,-0.248213
-0.169206,-0.21376,-0.240089
-0.173685,-0.226182,-0.233634
-0.178222,-0.239666,-0.229709
-0.179721,-0.244838,-0.228761
-0.180295,-0.259224,-0.224708
-0.173506,-0.275222,-0.221904
-0.171719,-0.280416,-0.216132
-0.16892,-0.290346,-0.214547
-0.162642,-0.30131,-0.217159
-0.157559,-0.306203,-0.217506
-0.153156,-0.315756,-0.220725
-0.138138,-0.32125,-0.221786
-0.132395,-0.331302,-0.226671
-0.119372,-0.336154,-0.228192
-0.108495,-0.333357,-0.239119
-0.098081,-0.335428,-0.246502
-0.08675,-0.330633,-0.25391
-0.076044,-0.329028,-0.261906
-0.070769,-0.324814,-0.272429
-0.058071,-0.314209,-0.285232
-0.052641,-0.309943,-0.29825
-0.042655,-0.301087,-0.314611
-0.034091,-0.288928,-0.334425
-0.022019,-0.279075,-0.356907
-0.011821,-0.26141,-0.371854
-0.002454,-0.250971,-0.383841
0.005022,-0.23711,-0.39342
0.0151,-0.223185,-0.396206
0.027461,-0.202368,-0.40832
0.042815,-0.188631,-0.415505
0.048286,-0.171153,-0.421199
0.056178,-0.154316,-0.429922
0.065514,-0.136194,-0.439723
0.077833,-0.118826,-0.451702
0.085346,-0.107247,-0.456709
0.093856,-0.092936,-0.466038
0.100324,-0.0792,-0.47299
0.110524,-0.065508,-0.485362
0.116473,-0.05727,-0.489263
0.125537,-0.040416,-0.499468
0.131863,-0.032583,-0.502475
0.142559,-0.027584,-0.50378
0.141463,-0.022365,-0.506596
0.147217,-0.015637,-0.505631
0.15221,-0.011857,-0.50929
0.154119,-0.008108,-0.509761
0.162216,-0.002462,-0.506966
0.163385,-0.002874,-0.504915
0.152887,-0.006017,-0.498834
0.154602,-0.019485,-0.499086
0.149576,-0.004999,-0.491709
0.148413,-0.001135,-0.484207
0.146426,0.01666,-0.479178
0.14646,0.021342,-0.470485
0.136182,0.010658,-0.460586
0.130921,0.000697,-0.458492
0.129823,0.021418,-0.452811
0.117371,0.032406,-0.444551
0.113011,0.032984,-0.4383
0.105592,0.021365,-0.427263
0.084545,0.011212,-0.417355
0.074264,0.023014,-0.410239
0.070225,0.035099,-0.400028
0.068928,0.03412,-0.388281
0.058206,0.031919,-0.379968
0.046838,0.032554,-0.37463
0.033958,0.030842,-0.370322
0.00767,0.037386,-0.386821
-0.027962,0.044411,-0.429472
-0.045474,0.044658,-0.491685
-0.046314,0.046407,-0.524874
-0.049841,0.051292,-0.520666
-0.059782,0.051481,-0.499961
-0.068344,0.054175,-0.476792
-0.07613,0.048818,-0.448325
-0.076997,0.044707,-0.424999
-0.081457,0.046945,-0.39794
-0.079285,0.043941,-0.380825
-0.075093,0.043026,-0.363344
-0.078683,0.037051,-0.354484
-0.082645,0.034314,-0.349125
-0.080013,0.03339,-0.341819
-0.086838,0.035455,-0.334257
-0.084364,0.02891,-0.336263
-0.086018,0.028228,-0.337306
-0.088227,0.025903,-0.330147
-0.09051,0.027951,-0.319551
-0.092198,0.03107,-0.313605
-0.093377,0.035001,-0.314261
-0.089687,0.033606,-0.302209
-0.0889,0.033865,-0.289379
-0.094588,0.037559,-0.27515
-0.095347,0.041538,-0.262494
-0.094493,0.049395,-0.250913
-0.102577,0.059035,-0.243621
-0.103392,0.055223,-0.231731
-0.093526,0.052016,-0.225109
-0.104076,0.054037,-0.216644
-0.109254,0.058263,-0.202473
-0.104965,0.060133,-0.193261
-0.107819,0.064536,-0.187857
-0.11182,0.064034,-0.183217
-0.114056,0.067512,-0.176437
-0.116111,0.075779,-0.171867
-0.116609,0.079375,-0.165302
-0.121978,0.086673,-0.162564
-0.126305,0.09312,-0.15742
-0.130856,0.101364,-0.155741
-0.137028,0.108144,-0.152844
-0.144821,0.115516,-0.153828
-0.153345,0.124855,-0.162329
-0.165503,0.131642,-0.165996
-0.176175,0.137519,-0.173929
-0.183103,0.148409,-0.180617
-0.19758,0.156153,-0.191276
-0.207311,0.161815,-0.203516
-0.21271,0.165879,-0.203055
-0.223561,0.170053,-0.211738
-0.226623,0.168108,-0.212127
-0.237323,0.168336,-0.206713
-0.238284,0.16991,-0.200376
-0.243433,0.165816,-0.200081
-0.24292,0.157125,-0.194503
-0.24973,0.152235,-0.188866
-0.25198,0.139362,-0.182129
-0.251091,0.132721,-0.182696
-0.250961,0.120267,-0.18314
-0.249213,0.103243,-0.180218
-0.251049,0.086597,-0.177258
-0.249118,0.071978,-0.181961
-0.245816,0.059576,-0.182095
-0.241232,0.045394,-0.185072
-0.24098,0.036278,-0.189188
-0.237805,0.025659,-0.19325
-0.230254,0.015443,-0.19626
-0.226718,0.003809,-0.193015
-0.220212,-0.001232,-0.196446
-0.219876,-0.001855,-0.194296
-0.217611,-0.00497,-0.19702
-0.207786,-0.002962,-0.19583
-0.202699,-0.002728,-0.191921
-0.200288,0.002318,-0.188598
-0.195788,0.011482,-0.18125
-0.184102,0.015762,-0.180602
-0.179,0.026273,-0.17328
-0.172085,0.031132,-0.168824
-0.161752,0.042448,-0.162283
-0.151341,0.05217,-0.156446
-0.131924,0.060893,-0.149317
-0.122496,0.071149,-0.141981
-0.106122,0.075508,-0.139357
-0.093581,0.080899,-0.129822
-0.07398,0.090387,-0.116181
-0.054254,0.094906,-0.114298
-0.038794,0.101522,-0.106388
-0.020011,0.106112,-0.097269
0.002294,0.107818,-0.089271
0.025738,0.108244,-0.083292
0.044502,0.110265,-0.071575
0.060935,0.108551,-0.058946
0.079865,0.101268,-0.050966
0.10215,0.099524,-0.040308
0.116307,0.098599,-0.027943
0.138848,0.100168,-0.019066
0.147427,0.099727,-0.013702
0.140084,0.100739,0.000647
0.093866,0.121196,0.013281
0.02047,0.150836,0.020462
-0.059357,0.184961,0.027893
-0.141442,0.216436,0.03496
-0.211076,0.2419,0.04844
-0.26561,0.269926,0.054049
-0.292107,0.295236,0.065913
-0.3006,0.30408,0.075584
-0.267769,0.309884,0.07975
-0.030343,0.238947,0.07604
0.349223,0.128115,0.063442
0.412262,0.112223,0.095917
0.25029,0.155864,0.098205
0.190199,0.184155,0.095404
0.265583,0.181708,0.08899
0.31688,0.17781,0.08743
0.301798,0.192744,0.088427
0.293443,0.211176,0.081081
0.297124,0.219177,0.075112
0.292712,0.230596,0.057539
0.290633,0.243857,0.046783
0.286622,0.253198,0.033147
0.288456,0.262327,0.02008
0.282905,0.266311,0.005188
0.279816,0.271941,-0.010501
0.276526,0.277253,-0.02557
0.273683,0.281242,-0.040287
0.275951,0.276554,-0.051007
0.26261,0.282948,-0.066026
0.255708,0.281245,-0.079128
0.249188,0.275209,-0.087671
0.245621,0.26658,-0.093511
0.246475,0.252227,-0.098081
0.257041,0.240233,-0.103913
0.265976,0.223329,-0.10682
0.284033,0.212581,-0.110006
0.304825,0.191858,-0.11346
0.325277,0.178655,-0.117339
0.348244,0.148346,-0.114012
0.378364,0.123025,-0.116424
0.391796,0.098202,-0.109762
0.334946,0.076725,-0.108656
0.269381,0.071626,-0.109643
0.280076,0.033224,-0.107786
0.313071,-0.002074,-0.100863
0.317722,-0.02165,-0.09928
0.294443,-0.033203,-0.088452
0.281417,-0.04703,-0.085127
0.283054,-0.080262,-0.080785
0.292351,-0.10796,-0.07825
0.315011,-0.129543,-0.071098
0.342705,-0.158596,-0.063233
0.379545,-0.197436,-0.054057
0.42861,-0.238018,-0.051849
0.476921,-0.269526,-0.043425
0.524647,-0.302994,-0.040713
0.571268,-0.329024,-0.02899
0.616761,-0.360969,-0.02846
0.653725,-0.392637,-0.023726
0.684529,-0.41467,-0.021212
0.683443,-0.428984,-0.018609
0.312445,-0.317287,-0.023721
-0.048868,-0.228818,-0.016342
0.046354,-0.238337,-0.011219
0.107238,-0.277972,-0.012389
0.07235,-0.27381,-0.013681
0.04713,-0.268382,-0.012963
0.038145,-0.26736,-0.011177
0.02527,-0.271511,-0.013067
0.013695,-0.277118,-0.018775
0.024309,-0.270018,-0.01868
0.011369,-0.268146,-0.018916
0.002193,-0.274731,-0.02133
0.004383,-0.269073,-0.024775
0.002759,-0.26418,-0.025529
0.006331,-0.258364,-0.028932
0.002926,-0.256738,-0.027993
0.002935,-0.254412,-0.028531
0.009737,-0.250551,-0.03203
0.010892,-0.244224,-0.033318
0.019228,-0.239381,-0.037967
0.022406,-0.237913,-0.034985
0.027127,-0.230637,-0.037682
0.031444,-0.225145,-0.041437
0.038182,-0.225262,-0.0393
0.041807,-0.216503,-0.044507
0.047392,-0.211129,-0.046937
0.056361,-0.208768,-0.048226
0.062238,-0.20501,-0.048815
0.065877,-0.199957,-0.051743
0.067516,-0.190574,-0.056216
0.07064,-0.190337,-0.057407
0.075556,-0.184922,-0.060514
0.081369,-0.17847,-0.062576
0.084569,-0.172938,-0.063454
0.085639,-0.16652,-0.066836
0.085597,-0.152111,-0.071433
0.089925,-0.141956,-0.077139
0.090035,-0.134008,-0.075088
0.089296,-0.122596,-0.077933
0.08084,-0.109994,-0.082137
0.076879,-0.098258,-0.084025
0.068551,-0.086716,-0.084084
0.062668,-0.075841,-0.086746
0.054748,-0.064057,-0.088648
0.043652,-0.059831,-0.08646
0.033902,-0.050458,-0.083779
0.031311,-0.0439,-0.084993
0.023631,-0.035757,-0.082067
0.011017,-0.028545,-0.080752
-0.000866,-0.022657,-0.079578
-0.010861,-0.015762,-0.0792
-0.023073,-0.003149,-0.074957
-0.033593,0.001214,-0.074612
-0.041847,0.000381,-0.073726
-0.053802,0.01025,-0.068782
-0.058754,0.016638,-0.068088
-0.073193,0.020543,-0.066373
-0.084396,0.025963,-0.064163
-0.086303,0.025894,-0.062358
-0.096121,0.030442,-0.06012
-0.107896,0.034783,-0.05576
-0.118713,0.033166,-0.060007
-0.125173,0.033583,-0.058626
-0.131147,0.037999,-0.053495
-0.136514,0.037361,-0.057858
-0.148883,0.03817,-0.056282
-0.151643,0.042415,-0.057334
-0.15716,0.039688,-0.058018
-0.161822,0.039374,-0.0599
-0.170469,0.036069,-0.061335
-0.178166,0.037234,-0.064754
-0.172244,0.040898,-0.062603
-0.178479,0.033889,-0.068969
-0.183745,0.032558,-0.069435
-0.184493,0.023643,-0.071543
-0.186706,0.027274,-0.076634
-0.184475,0.029018,-0.080803
-0.18342,0.026893,-0.081724
-0.182638,0.025249,-0.085889
-0.180478,0.028753,-0.089276
-0.175928,0.029557,-0.097041
-0.176661,0.03467,-0.104293
-0.174835,0.0356,-0.106984
-0.176585,0.038024,-0.108953
-0.176321,0.041609,-0.121294
-0.175807,0.043706,-0.123899
-0.16938,0.049902,-0.133722
-0.175479,0.05048,-0.134557
-0.171135,0.053627,-0.14306
-0.166637,0.05647,-0.144485
-0.164339,0.061486,-0.158378
-0.162675,0.065199,-0.162849
-0.161266,0.06877,-0.172368
-0.159198,0.07572,-0.176291
-0.151886,0.074447,-0.186273
-0.156559,0.075117,-0.191419
-0.155532,0.078373,-0.198218
-0.160338,0.080464,-0.203899
-0.154057,0.084763,-0.212824
-0.150834,0.084683,-0.218391
-0.150108,0.082356,-0.224255
-0.150676,0.080463,-0.231068
-0.146225,0.083018,-0.234136
-0.13978,0.084976,-0.23887
-0.143436,0.08286,-0.244324
-0.137459,0.085927,-0.250889
-0.132971,0.093424,-0.252083
-0.126597,0.100861,-0.255096
-0.124836,0.104972,-0.261231
-0.118729,0.112853,-0.267385
-0.112021,0.122274,-0.26885
-0.11342,0.131603,-0.275318
-0.104727,0.141609,-0.279431
-0.099452,0.153733,-0.283818
-0.098245,0.163835,-0.289299
-0.096421,0.175404,-0.294691
-0.088786,0.185981,-0.297183
-0.088155,0.191986,-0.303163
-0.082061,0.209802,-0.309683
-0.082257,0.220228,-0.311354
-0.077841,0.226962,-0.314188
-0.070055,0.236056,-0.319439
-0.069258,0.245009,-0.322381
-0.066549,0.255054,-0.327671
-0.062256,0.266532,-0.329867
-0.062847,0.276632,-0.330496
-0.055826,0.285297,-0.332825
-0.057912,0.298234,-0.334953
-0.049695,0.302795,-0.340945
-0.043993,0.313189,-0.3417
-0.035742,0.319444,-0.343943
-0.027573,0.320674,-0.346702
-0.023064,0.327753,-0.348641
-0.021112,0.331692,-0.3508
-0.009179,0.326753,-0.352699
-0.000596,0.320856,-0.350523
0.006147,0.317755,-0.356782
0.013454,0.305454,-0.358476
0.019974,0.295547,-0.356746
0.026632,0.280578,-0.361504
0.030761,0.262562,-0.362502
0.033022,0.246011,-0.362834
0.039835,0.224771,-0.366296
0.044567,0.203363,-0.367521
0.050185,0.174759,-0.375034
0.057759,0.148701,-0.377931
0.059798,0.12598,-0.37757
0.060702,0.100172,-0.380942
0.058801,0.078715,-0.384386
0.058723,0.056007,-0.386545
0.05571,0.039396,-0.39254
0.053296,0.027614,-0.392145
0.049796,0.009266,-0.393987
0.048446,-0.002591,-0.390467
0.039626,-0.015369,-0.390272
0.033722,-0.017899,-0.387888
0.02671,-0.014506,-0.381988
0.017541,-0.014834,-0.378254
0.014909,-0.013854,-0.37142
0.005131,0.00019,-0.363293
-0.005692,0.012181,-0.355478
-0.023212,0.030363,-0.348388
-0.035858,0.051705,-0.334568
-0.048898,0.075499,-0.327653
-0.064933,0.096988,-0.316626
-0.067785,0.120286,-0.30842
-0.078042,0.137747,-0.295311
-0.081444,0.158825,-0.285606
-0.086792,0.180721,-0.276215
-0.093016,0.194366,-0.268911
-0.091557,0.211253,-0.255845
-0.086826,0.224102,-0.255758
-0.083028,0.234955,-0.243171
-0.079018,0.240279,-0.238489
-0.075354,0.243972,-0.230092
-0.071955,0.242176,-0.224896
-0.061256,0.234889,-0.22435
-0.046282,0.225874,-0.223652
-0.042291,0.208981,-0.2205
-0.021,0.188703,-0.219359
-0.008602,0.160069,-0.224999
0.003152,0.131894,-0.231399
0.015282,0.099299,-0.234307
0.033847,0.066697,-0.241512
0.047468,0.026669,-0.246435
0.060423,-0.008713,-0.258641
0.071649,-0.047076,-0.264765
0.075861,-0.081396,-0.274745
0.086731,-0.112294,-0.284986
0.085574,-0.144365,-0.295994
0.090025,-0.172661,-0.305252
0.087535,-0.196433,-0.311951
0.087269,-0.213458,-0.321001
0.076378,-0.231242,-0.332139
0.069667,-0.245962,-0.339624
0.057503,-0.257009,-0.346448
0.050231,-0.267987,-0.356425
0.041305,-0.286514,-0.361723
0.026958,-0.289598,-0.363474
0.018179,-0.299278,-0.367308
0.004534,-0.300197,-0.37165
-0.01162,-0.312617,-0.37151
-0.026362,-0.321558,-0.373285
-0.047018,-0.323695,-0.371836
-0.05969,-0.327057,-0.369693
-0.071263,-0.338978,-0.36481
-0.085866,-0.343865,-0.360973
-0.102097,-0.354287,-0.353789
-0.117865,-0.357129,-0.34803
-0.131895,-0.364344,-0.339703
-0.141259,-0.377795,-0.331773
-0.149216,-0.382081,-0.326501
-0.161183,-0.384408,-0.315543
-0.16813,-0.387853,-0.302973
-0.161873,-0.389479,-0.29041
-0.150315,-0.387895,-0.283083
-0.147189,-0.382131,-0.284404
-0.230224,-0.399451,-0.392976
-0.348917,-0.423282,-0.553699
-0.308041,-0.412519,-0.580937
-0.246212,-0.388323,-0.50928
-0.258558,-0.393717,-0.434668
-0.258206,-0.396472,-0.393894
-0.245422,-0.397311,-0.395502
-0.220242,-0.39143,-0.416166
-0.203268,-0.387377,-0.407404
-0.175808,-0.37619,-0.371085
-0.149833,-0.374708,-0.318103
-0.137559,-0.368993,-0.286517
-0.126438,-0.368609,-0.289814
-0.108556,-0.364308,-0.322957
-0.080398,-0.354828,-0.33934
-0.051588,-0.35563,-0.337726
-0.050619,-0.348201,-0.359586
-0.033472,-0.331104,-0.407921
-0.010626,-0.319338,-0.424726
0.027593,-0.323163,-0.424486
0.060452,-0.323291,-0.401005
0.086945,-0.318392,-0.385749
0.115526,-0.309347,-0.37192
0.14037,-0.301614,-0.354829
0.166031,-0.290187,-0.339693
0.185693,-0.281526,-0.326736
0.210433,-0.269598,-0.307286
0.232118,-0.269413,-0.288883
0.250811,-0.263073,-0.280227
0.27385,-0.249091,-0.272773
0.295279,-0.24128,-0.26262
0.313059,-0.234661,-0.252676
0.332003,-0.217856,-0.244252
0.34687,-0.203474,-0.241792
0.361887,-0.184324,-0.236429
0.375221,-0.16543,-0.229843
0.37959,-0.149971,-0.227258
0.389255,-0.13478,-0.222738
0.388952,-0.117302,-0.220384
0.385401,-0.097027,-0.220986
0.381849,-0.076723,-0.215513
0.380261,-0.061984,-0.211659
0.377781,-0.040349,-0.209804
0.369594,-0.026873,-0.206916
0.358222,-0.011855,-0.20138
0.345398,0.005666,-0.199382
0.331838,0.016097,-0.194199
0.317646,0.025851,-0.192879
0.298979,0.040462,-0.195391
0.285981,0.05145,-0.194243
0.269868,0.058203,-0.201836
0.250924,0.06107,-0.204994
0.237329,0.070728,-0.206447
0.219194,0.073103,-0.202732
0.197928,0.071593,-0.194141
0.181931,0.07307,-0.186057
0.162572,0.072678,-0.180069
0.149024,0.068339,-0.173821
0.130353,0.069029,-0.158353
0.118367,0.063961,-0.150998
0.104549,0.057829,-0.134963
0.086185,0.054853,-0.116481
0.075958,0.046254,-0.107637
0.062674,0.039638,-0.09522
0.056358,0.036541,-0.08072
0.03924,0.03222,-0.056402
0.025641,0.030101,-0.040594
0.009795,0.026912,-0.02567
0.004236,0.019421,-0.005664
-0.011159,0.013927,0.015832
-0.02228,0.01398,0.026383
-0.026849,0.005785,0.033846
-0.042924,0.005088,0.037355
-0.051235,0.004385,0.049906
-0.060777,0.000942,0.04862
-0.073586,-0.006051,0.051498
-0.07437,-0.011915,0.05554
-0.081322,-0.012372,0.076529
-0.091292,-0.012437,0.081833
-0.0973,-0.022268,0.086413
-0.098568,-0.024909,0.092361
-0.099765,-0.028773,0.097457
-0.104348,-0.035116,0.094422
-0.108252,-0.037806,0.09919
-0.110379,-0.04416,0.110806
-0.10698,-0.052169,0.131249
-0.11127,-0.055058,0.146338
-0.113668,-0.059743,0.167494
-0.114568,-0.064056,0.180417
-0.120047,-0.06738,0.191363
-0.121604,-0.073612,0.202257
-0.12047,-0.080083,0.202667
-0.124581,-0.086525,0.210685
-0.128423,-0.089492,0.212678
-0.13026,-0.093272,0.216457
-0.127687,-0.095336,0.219127
-0.133044,-0.100733,0.213809
-0.136589,-0.096494,0.213213
-0.141564,-0.097996,0.207268
-0.147747,-0.095043,0.204175
-0.148463,-0.093243,0.200362
-0.155158,-0.093406,0.196656
-0.170496,-0.086509,0.188204
-0.174986,-0.080746,0.180014
-0.186747,-0.076818,0.174319
-0.196473,-0.073262,0.171792
-0.209738,-0.068885,0.166503
-0.220206,-0.065684,0.161133
-0.224583,-0.058733,0.161604
-0.232948,-0.05932,0.158646
-0.241603,-0.058399,0.157946
-0.250088,-0.055529,0.158326
-0.253651,-0.052202,0.160957
-0.259593,-0.052369,0.168296
-0.267853,-0.045316,0.164906
-0.271679,-0.045185,0.166791
-0.278389,-0.040995,0.16649
-0.278604,-0.038509,0.165365
-0.282627,-0.037338,0.164583
-0.285059,-0.034145,0.16802
-0.28369,-0.036019,0.167895
-0.284024,-0.032195,0.171531
-0.28186,-0.032726,0.175928
-0.277647,-0.034663,0.180235
-0.274889,-0.030516,0.182991
-0.269823,-0.026424,0.186437
-0.264314,-0.036533,0.19078
-0.260797,-0.03445,0.187161
-0.253318,-0.041535,0.192858
-0.243235,-0.042592,0.192931
-0.23648,-0.046332,0.197958
-0.228488,-0.055482,0.201834
-0.222601,-0.058381,0.205984
-0.209516,-0.066563,0.20946
-0.19474,-0.077264,0.209721
-0.179194,-0.088958,0.216655
-0.165974,-0.104265,0.219361
-0.14821,-0.120489,0.222861
-0.12933,-0.138721,0.226443
-0.109439,-0.160219,0.231715
-0.085332,-0.185379,0.231985
-0.060402,-0.209744,0.236584
-0.036581,-0.235981,0.244037
-0.01585,-0.26077,0.250705
0.00825,-0.283745,0.252415
0.027812,-0.310603,0.262893
0.054621,-0.333434,0.26293
0.071206,-0.353168,0.272032
0.091731,-0.364751,0.283394
0.112919,-0.373983,0.282515
0.122076,-0.377451,0.292013
0.132331,-0.36702,0.297617
0.139659,-0.346549,0.298079
0.149184,-0.326143,0.306518
0.152031,-0.306627,0.30868
0.151398,-0.280079,0.312015
0.150674,-0.249639,0.313986
0.154354,-0.212917,0.3145
0.153383,-0.170392,0.314479
0.146499,-0.130139,0.316101
0.141344,-0.090225,0.315111
0.140803,-0.049514,0.317331
0.13964,-0.013128,0.313935
0.133864,0.02289,0.313807
0.1287,0.060755,0.312914
0.127324,0.093859,0.310541
0.129601,0.122099,0.305287
0.132192,0.142223,0.306066
0.135569,0.162485,0.303816
0.13874,0.179938,0.30278
0.147889,0.191308,0.297795
0.162422,0.202518,0.29641
0.170549,0.2027,0.297206
0.181434,0.202661,0.294996
0.196066,0.196033,0.2914
0.215355,0.188624,0.295763
0.23028,0.180402,0.295451
0.243864,0.167362,0.296194
0.25818,0.156977,0.295869
0.282107,0.136817,0.298158
0.299972,0.119173,0.298617
0.319847,0.10158,0.306372
0.327802,0.088175,0.302511
0.340445,0.073897,0.30592
0.356758,0.057245,0.309842
0.36064,0.044286,0.312699
0.366744,0.031569,0.316291
0.371292,0.021853,0.321714
0.370074,0.010652,0.326882
0.371005,0.005221,0.331812
0.370305,-0.005142,0.338026
0.362163,-0.004825,0.342231
0.360993,-0.010292,0.351017
0.353455,-0.01297,0.354449
0.346527,-0.020583,0.363074
0.336156,-0.017972,0.370338
0.320318,-0.019868,0.375684
0.312055,-0.02383,0.381296
0.300124,-0.02691,0.385854
0.28692,-0.031251,0.390672
0.271869,-0.03821,0.396831
0.260826,-0.050294,0.401949
0.246752,-0.050347,0.410447
0.235932,-0.063725,0.417254
0.218152,-0.070365,0.425341
0.205212,-0.075577,0.431276
0.197042,-0.084832,0.438339
0.181209,-0.094052,0.449032
0.171272,-0.107312,0.451698
0.166257,-0.115404,0.457568
0.158434,-0.119686,0.464194
0.149336,-0.127594,0.469307
0.141829,-0.134292,0.474703
0.136558,-0.143062,0.479586
0.133263,-0.143471,0.481505
0.13246,-0.151473,0.487325
0.12782,-0.14683,0.489192
0.122123,-0.146498,0.493599
0.123063,-0.147001,0.495582
0.128683,-0.143269,0.499363
0.127494,-0.13901,0.500483
0.131261,-0.134811,0.500762
0.136154,-0.126119,0.505533
0.1446,-0.122187,0.501596
0.147059,-0.112851,0.500517
0.149729,-0.107281,0.49806
0.153048,-0.102393,0.495762
0.157034,-0.094911,0.492435
0.164764,-0.087094,0.490237
0.173608,-0.080459,0.487026
0.179342,-0.067496,0.485278
0.187696,-0.057642,0.480963
0.191978,-0.05051,0.476522
0.197376,-0.046884,0.470796
0.205813,-0.034267,0.463831
0.212564,-0.031255,0.456777
0.211952,-0.019361,0.451463
0.216989,-0.010091,0.442124
0.221989,-0.002365,0.435207
0.220456,0.004581,0.427515
0.22394,0.009847,0.419103
0.224154,0.016836,0.410508
0.222015,0.020478,0.401745
0.219431,0.031584,0.392496
0.211554,0.037674,0.383566
0.210448,0.044922,0.373776
0.205228,0.050522,0.367133
0.198206,0.052386,0.356974
0.183532,0.063293,0.347077
0.174627,0.068166,0.33953
0.163218,0.07157,0.330731
0.153094,0.082906,0.323679
0.140271,0.08296,0.314242
0.123543,0.086568,0.306653
0.107393,0.093318,0.298718
0.097279,0.094294,0.291701
0.084428,0.096797,0.28486
0.066224,0.100746,0.27652
0.050516,0.100022,0.270879
0.035562,0.099958,0.26548
0.018816,0.100917,0.260489
0.001133,0.099403,0.257022
-0.017658,0.102029,0.249585
-0.030364,0.093807,0.246341
-0.043721,0.096603,0.244869
-0.056793,0.094666,0.238203
-0.075892,0.086207,0.23615
-0.083067,0.082957,0.229644
-0.091818,0.080553,0.229412
-0.102575,0.075058,0.22066
-0.116476,0.063293,0.221726
-0.126569,0.056998,0.218736
-0.132421,0.054931,0.213402
-0.141512,0.046171,0.21276
-0.146602,0.039304,0.2127
-0.151201,0.028176,0.206815
-0.15658,0.02725,0.200618
-0.158657,0.019636,0.200615
-0.162017,0.01672,0.196268
-0.164999,0.005742,0.193032
-0.169243,0.00573,0.188974
-0.167002,0.000872,0.186569
-0.172871,-0.003849,0.180314
-0.169207,-0.007577,0.173631
-0.174977,-0.005792,0.173002
-0.174299,-0.010106,0.163572
-0.171253,-0.0137,0.158691
-0.170359,-0.017996,0.152945
-0.169112,-0.017577,0.147014
-0.166214,-0.024061,0.140076
-0.163037,-0.024456,0.135183
-0.160354,-0.024074,0.127403
-0.15578,-0.022718,0.116443
-0.15039,-0.024576,0.111415
-0.145748,-0.026992,0.106887
-0.140563,-0.022984,0.101721
-0.134586,-0.018938,0.092926
-0.126237,-0.017978,0.08538
-0.126147,-0.017768,0.07593
-0.115907,-0.01096,0.07206
-0.111525,-0.010793,0.062727
-0.107372,-0.007302,0.053848
-0.10353,-0.004338,0.05025
-0.099806,0.004072,0.042082
-0.094567,0.001491,0.031475
-0.089321,0.008649,0.026646
-0.087956,0.007559,0.019147
-0.08463,0.012612,0.010218
-0.078776,0.013217,0.003966
-0.071412,0.012901,-0.003317
-0.067294,0.016493,-0.016478
-0.067943,0.018936,-0.020647
-0.060079,0.022352,-0.027198
-0.058708,0.019994,-0.031783
-0.056502,0.015544,-0.042748
-0.049751,0.014951,-0.048842
-0.047581,0.017778,-0.059678
-0.044329,0.013744,-0.067607
-0.041626,0.009675,-0.074895
-0.04108,0.008819,-0.084032
-0.037925,0.004799,-0.090358
-0.033395,0.004093,-0.098756
-0.02988,0.001935,-0.108777
-0.028613,0.004321,-0.118604
-0.026737,0.002689,-0.127426
-0.025377,0.006839,-0.141568
-0.024457,0.007338,-0.151554
-0.024439,0.012951,-0.161558
-0.026001,0.013069,-0.172009
-0.029421,0.022554,-0.183284
-0.033128,0.030734,-0.19616
-0.035304,0.034287,-0.207369
-0.04123,0.044408,-0.218709
-0.047775,0.052955,-0.232588
-0.051409,0.062158,-0.242908
-0.056814,0.06885,-0.255595
-0.05521,0.076833,-0.260516
-0.065689,0.089242,-0.272168
-0.070108,0.094891,-0.27959
-0.070925,0.103509,-0.288259
-0.073658,0.116319,-0.300801
-0.07537,0.115914,-0.307128
-0.077267,0.133201,-0.309293
-0.078473,0.140361,-0.314751
-0.075832,0.151747,-0.325724
-0.078416,0.161865,-0.330482
-0.077584,0.168905,-0.333373
-0.074165,0.180034,-0.334652
-0.071462,0.183208,-0.334062
-0.06641,0.189775,-0.335364
-0.064306,0.192075,-0.335342
-0.06564,0.194543,-0.341095
-0.061461,0.196936,-0.339456
-0.056604,0.19782,-0.342745
-0.051191,0.193662,-0.340405
-0.047699,0.192039,-0.338604
-0.044636,0.19101,-0.343069
-0.040261,0.187216,-0.343248
-0.03794,0.188174,-0.34143
-0.036214,0.183312,-0.341117
-0.031555,0.181157,-0.341381
-0.029615,0.179725,-0.341111
-0.030485,0.181241,-0.339152
-0.032485,0.178432,-0.343366
-0.034644,0.178141,-0.343186
-0.040974,0.177672,-0.344431
-0.040621,0.178511,-0.343318
-0.04563,0.179908,-0.339781
-0.052044,0.180293,-0.346062
-0.057562,0.184105,-0.345826
-0.067776,0.18995,-0.350408
-0.077116,0.195178,-0.35108
-0.087647,0.197297,-0.350098
-0.099307,0.204925,-0.351466
-0.110868,0.216114,-0.355916
-0.119962,0.227606,-0.35592
-0.133014,0.238084,-0.35889
-0.146349,0.249346,-0.365259
-0.164759,0.259962,-0.363351
-0.17689,0.273506,-0.367495
-0.19318,0.292475,-0.370275
-0.212711,0.303998,-0.372547
-0.231417,0.32142,-0.368042
-0.249881,0.338104,-0.375362
-0.260897,0.358138,-0.376956
-0.278686,0.37077,-0.377478
-0.291668,0.388526,-0.37856
-0.308386,0.396701,-0.381757
-0.321627,0.410014,-0.380522
-0.329953,0.414968,-0.385128
-0.343175,0.421288,-0.386344
-0.351755,0.42366,-0.383048
-0.359845,0.423911,-0.389394
-0.361069,0.420477,-0.389794
-0.365967,0.408348,-0.393336
-0.368978,0.402876,-0.394899
-0.375862,0.385601,-0.394382
-0.368707,0.370424,-0.396788
-0.369434,0.351086,-0.399962
-0.371367,0.332367,-0.400308
-0.365837,0.30619,-0.402106
-0.362074,0.283272,-0.4042
-0.353743,0.252623,-0.403938
-0.35156,0.22573,-0.407034
-0.351405,0.19555,-0.405845
-0.348592,0.168688,-0.40634
-0.341782,0.139444,-0.405493
-0.340749,0.105318,-0.405471
-0.340685,0.083218,-0.401594
-0.338939,0.057433,-0.400598
-0.334913,0.029618,-0.397873
-0.331049,0.010868,-0.396745
-0.327197,-0.014955,-0.391421
-0.329088,-0.038381,-0.385717
-0.327681,-0.058721,-0.382406
-0.322463,-0.079811,-0.376381
-0.318448,-0.103433,-0.37256
-0.312617,-0.123112,-0.371882
-0.303437,-0.149466,-0.360635
-0.291272,-0.168303,-0.354017
-0.284255,-0.181457,-0.34983
-0.281455,-0.211801,-0.342129
-0.273773,-0.227071,-0.336397
-0.263019,-0.2489,-0.32611
-0.252607,-0.268552,-0.322087
-0.23606,-0.280572,-0.314207
-0.220366,-0.302802,-0.306331
-0.202358,-0.317635,-0.306244
-0.185646,-0.330755,-0.301801
-0.169517,-0.340684,-0.298528
-0.151992,-0.353099,-0.294003
-0.120918,-0.354385,-0.291745
-0.089547,-0.360575,-0.292152
-0.064395,-0.36395,-0.290531
-0.039274,-0.373888,-0.290655
-0.034641,-0.380491,-0.287588
-0.034387,-0.393096,-0.297149
-0.030544,-0.399314,-0.293683
-0.019296,-0.404629,-0.298181
0.00486,-0.406747,-0.303428
0.015581,-0.409961,-0.308648
0.018644,-0.42036,-0.307889
0.017347,-0.419001,-0.314039
0.057856,-0.403164,-0.318281
0.129991,-0.381129,-0.323144
0.160336,-0.378017,-0.331934
0.190984,-0.364463,-0.332905
0.212625,-0.355594,-0.338875
0.237031,-0.341855,-0.344519
0.266431,-0.329892,-0.345409
0.296325,-0.312994,-0.352322
0.318009,-0.298834,-0.355387
0.347807,-0.284421,-0.355004
0.375595,-0.272286,-0.36069
0.400759,-0.256367,-0.362903
0.428895,-0.238365,-0.365336
0.449013,-0.227383,-0.367218
0.468878,-0.209886,-0.369771
0.490215,-0.193343,-0.375576
0.509965,-0.175275,-0.377663
0.527371,-0.165366,-0.381854
0.540061,-0.145921,-0.382584
0.555053,-0.131731,-0.390191
0.565612,-0.119925,-0.388603
0.572991,-0.105241,-0.397126
0.580672,-0.096168,-0.398886
0.586171,-0.083448,-0.398985
0.586378,-0.072104,-0.3997
0.588121,-0.060189,-0.40284
0.586125,-0.05011,-0.406118
0.579807,-0.038585,-0.410636
0.573779,-0.03037,-0.404614
0.567705,-0.02235,-0.407538
0.558866,-0.01549,-0.411923
0.550025,-0.006241,-0.408772
0.535018,0.004212,-0.416404
0.519071,0.009353,-0.416654
0.508147,0.013935,-0.415354
0.487585,0.015532,-0.417768
0.471243,0.027318,-0.415909
0.453689,0.033923,-0.410284
0.434461,0.032354,-0.40748
0.419018,0.036909,-0.407349
0.39729,0.040262,-0.403731
0.37274,0.042657,-0.404887
0.348287,0.042578,-0.396697
0.329977,0.046437,-0.39435
0.307017,0.045317,-0.390229
0.284001,0.050975,-0.384738
0.258813,0.054643,-0.375745
0.233426,0.057855,-0.374673
0.207891,0.058312,-0.366129
0.181546,0.062699,-0.358304
0.15511,0.061712,-0.351009
0.131317,0.065612,-0.346772
0.108019,0.072024,-0.334643
0.08739,0.07016,-0.325809
0.065779,0.067199,-0.318185
0.040776,0.068461,-0.308602
0.026899,0.068349,-0.298586
0.002464,0.062846,-0.290714
-0.013524,0.059528,-0.283892
-0.034718,0.061288,-0.272612
-0.049099,0.051826,-0.263968
-0.065926,0.043937,-0.255042
-0.078933,0.042484,-0.24633
-0.091773,0.037668,-0.233196
-0.11183,0.030109,-0.226736
-0.118174,0.019758,-0.215013
-0.132731,0.014437,-0.2078
-0.140637,0.012036,-0.193682
-0.152864,0.003407,-0.188936
-0.16319,-0.002877,-0.179917
-0.174759,-0.007503,-0.169262
-0.183144,-0.012757,-0.160183
-0.193121,-0.012559,-0.156048
-0.207087,-0.014478,-0.146104
-0.211482,-0.018002,-0.140014
-0.226289,-0.022274,-0.131692
-0.236574,-0.0284,-0.124285
-0.247982,-0.028586,-0.117622
-0.250988,-0.03085,-0.114685
-0.268209,-0.031388,-0.107178
-0.275832,-0.033104,-0.103426
-0.285885,-0.035697,-0.099827
-0.295182,-0.033857,-0.095381
-0.306539,-0.038275,-0.094624
-0.315669,-0.041546,-0.088644
-0.321595,-0.042482,-0.08322
-0.328209,-0.046912,-0.077531
-0.333615,-0.047497,-0.078593
-0.338261,-0.0523,-0.072241
-0.339976,-0.056861,-0.069617
-0.346455,-0.060354,-0.065812
-0.347306,-0.058225,-0.066626
-0.343981,-0.063282,-0.058445
-0.346379,-0.058672,-0.063163
-0.3481,-0.058137,-0.059627
-0.348918,-0.056583,-0.060202
-0.351183,-0.057231,-0.057766
-0.350362,-0.053653,-0.06097
-0.349249,-0.057091,-0.060816
-0.347124,-0.05213,-0.0597
-0.344774,-0.054805,-0.060569
-0.339685,-0.051047,-0.059372
-0.335124,-0.049955,-0.058889
-0.326306,-0.049539,-0.059982
-0.323381,-0.046049,-0.060689
-0.313881,-0.044057,-0.06104
-0.308192,-0.037959,-0.05623
-0.301111,-0.037573,-0.058398
-0.295118,-0.039151,-0.059746
-0.286882,-0.035857,-0.064585
-0.275092,-0.036995,-0.058177
-0.263138,-0.044662,-0.061046
-0.252004,-0.046067,-0.062107
-0.241239,-0.046732,-0.065765
-0.227667,-0.045337,-0.067014
-0.214908,-0.052471,-0.067677
-0.20252,-0.052349,-0.066829
-0.192353,-0.0517,-0.067553
-0.176112,-0.054024,-0.065424
-0.167263,-0.054553,-0.06896
-0.15136,-0.053334,-0.067911
-0.138991,-0.052746,-0.06132
-0.12628,-0.055517,-0.06088
-0.117205,-0.05364,-0.06105
-0.104065,-0.051865,-0.052357
-0.096725,-0.052886,-0.050621
-0.086354,-0.044723,-0.04753
-0.075494,-0.042014,-0.039092
-0.064564,-0.0365,-0.033413
-0.057302,-0.035374,-0.024837
-0.049505,-0.02865,-0.019407
-0.040977,-0.022343,-0.011009
-0.032957,-0.017437,-0.00605
-0.02432,-0.011548,0.00334
-0.023013,-0.000262,0.012811
-0.016959,0.001819,0.022019
-0.009307,0.008176,0.030608
0.001686,0.009706,0.043987
0.006013,0.012998,0.050498
0.013005,0.020605,0.061167
0.014167,0.018365,0.076904
0.015914,0.019007,0.086603
0.020791,0.01624,0.098341
0.023725,0.015865,0.108699
0.029192,0.014391,0.125019
0.032452,0.005118,0.133174
0.039492,-0.00636,0.146205
0.047154,-0.013842,0.158276
0.05093,-0.023554,0.167917
0.05665,-0.038254,0.179254
0.068954,-0.04742,0.190485
0.073435,-0.058214,0.19903
0.074966,-0.065272,0.205178
0.079779,-0.076045,0.209846
0.088342,-0.085567,0.220805
0.088056,-0.101323,0.227273
0.090704,-0.101994,0.228889
0.086876,-0.108951,0.230377
0.092482,-0.104412,0.23104
0.084446,-0.140186,0.232115
0.094187,-0.109074,0.229869
0.089412,-0.083475,0.230747
0.088026,-0.082961,0.229657
0.092901,-0.094475,0.223845
0.07615,-0.110762,0.214928
0.049146,-0.092734,0.205696
0.052778,-0.065772,0.197343
0.060072,-0.042425,0.183357
0.056485,-0.014316,0.175755
0.061042,-0.003991,0.165886
0.067269,0.007101,0.150674
0.063442,0.025053,0.13399
0.064608,0.040296,0.117049
0.062381,0.050565,0.101114
0.063362,0.068807,0.083513
0.063805,0.086246,0.065831
0.075708,0.090308,0.049479
0.082158,0.103248,0.027136
0.087438,0.113947,0.00921
0.091388,0.11845,-0.005917
0.101198,0.124846,-0.026032
0.113667,0.126246,-0.041611
0.125574,0.127488,-0.062077
0.134411,0.125841,-0.075243
0.141049,0.123475,-0.091314
0.149668,0.11287,-0.108084
0.166101,0.098541,-0.123341
0.179877,0.076585,-0.137301
0.191667,0.05775,-0.151294
0.200232,0.037371,-0.167963
0.212938,0.021435,-0.174482
0.222587,-0.000958,-0.182776
0.229273,-0.017105,-0.196554
0.237478,-0.039242,-0.201486
0.241672,-0.056158,-0.209518
0.248482,-0.075351,-0.211516
0.249983,-0.090389,-0.211377
0.252567,-0.105795,-0.213568
0.252383,-0.121142,-0.210673
0.250106,-0.144385,-0.210351
0.239696,-0.160572,-0.207676
0.237022,-0.166042,-0.204198
0.228522,-0.176437,-0.202864
0.216376,-0.183013,-0.190538
0.208735,-0.189987,-0.185852
0.203798,-0.197522,-0.17655
0.189089,-0.194906,-0.169784
0.174359,-0.201081,-0.157191
0.167417,-0.204881,-0.146291
0.155426,-0.205912,-0.132859
0.14182,-0.206254,-0.119619
0.129934,-0.211544,-0.105348
0.121509,-0.214779,-0.091696
0.1052,-0.220743,-0.079793
0.099865,-0.219399,-0.065702
0.092305,-0.219357,-0.052255
0.080519,-0.222103,-0.038439
0.079624,-0.225192,-0.022596
0.073127,-0.232036,-0.006472
0.061188,-0.231196,0.028279
0.031086,-0.233361,0.144049
0.03706,-0.240183,0.284623
0.059324,-0.244013,0.357207
0.06774,-0.238135,0.329692
-0.048546,-0.251673,0.118939
-0.040494,-0.256789,-0.175469
-0.007932,-0.262035,-0.27615
0.005846,-0.266108,-0.223681
0.007766,-0.262904,-0.151455
0.015489,-0.264837,-0.134322
0.048006,-0.27741,-0.141878
0.056268,-0.289361,-0.137357
0.061715,-0.286821,-0.14507
0.087074,-0.290196,-0.152655
0.10189,-0.299895,-0.162593
0.109199,-0.30259,-0.168279
0.133016,-0.302704,-0.185861
0.144824,-0.309737,-0.189589
0.186979,-0.313067,-0.196029
0.183909,-0.319713,-0.187674
0.201721,-0.319333,-0.177711
0.223788,-0.317393,-0.166056
0.243839,-0.318401,-0.159262
0.251295,-0.311817,-0.159824
0.264961,-0.306213,-0.168912
0.276319,-0.297865,-0.173774
0.285374,-0.290425,-0.17654
0.296483,-0.277442,-0.174779
0.304153,-0.262995,-0.168405
0.310775,-0.248319,-0.166568
0.318471,-0.235945,-0.161505
0.319079,-0.215122,-0.157037
0.328096,-0.198604,-0.146872
0.332803,-0.179732,-0.144921
0.331754,-0.158212,-0.134312
0.329109,-0.144301,-0.128205
0.331446,-0.117512,-0.119744
0.323883,-0.100945,-0.114012
0.317719,-0.081566,-0.10704
0.310471,-0.063898,-0.097547
0.302324,-0.044428,-0.099358
0.298599,-0.026089,-0.104283
0.289048,-0.008811,-0.106819
0.284974,0.001474,-0.109439
0.273018,0.02092,-0.111777
0.267977,0.032472,-0.109532
0.259035,0.037961,-0.111422
0.253404,0.049596,-0.112969
0.240716,0.057321,-0.11165
0.228525,0.076023,-0.113101
0.221529,0.079278,-0.109775
0.210919,0.089703,-0.10834
0.202826,0.099317,-0.106426
0.190944,0.107244,-0.103092
0.180665,0.112488,-0.104639
0.175598,0.118614,-0.100772
0.166144,0.126716,-0.099564
0.157385,0.128803,-0.095928
0.148792,0.137638,-0.091504
0.144074,0.139666,-0.089714
0.138973,0.145031,-0.088981
0.127778,0.145426,-0.086577
0.126638,0.150131,-0.085066
0.12291,0.154614,-0.083815
0.115008,0.154267,-0.082713
0.110909,0.16323,-0.080739
0.103345,0.162791,-0.078709
0.095203,0.16957,-0.074278
0.084016,0.173552,-0.042434
0.078989,0.177018,-0.000162
0.081868,0.178162,0.020216
0.072546,0.181004,0.008113
0.066815,0.189614,-0.009036
0.062064,0.19128,-0.034811
0.053895,0.196943,-0.057447
0.040705,0.207333,-0.091715
0.010283,0.216856,-0.168762
0.006948,0.223053,-0.238201
0.008682,0.222219,-0.271456
0.002166,0.227723,-0.282647
-0.008519,0.231002,-0.281541
-0.008512,0.232523,-0.272906
-0.012064,0.236128,-0.254613
-0.021301,0.23801,-0.240691
-0.024711,0.242475,-0.223765
-0.031595,0.242995,-0.199011
-0.038669,0.244444,-0.187732
-0.046794,0.248382,-0.174449
-0.054862,0.245703,-0.167337
-0.063521,0.25034,-0.168049
-0.07004,0.248595,-0.172311
-0.075547,0.249562,-0.175647
-0.083156,0.247536,-0.181761
-0.09314,0.246031,-0.18523
-0.099915,0.250559,-0.189382
-0.106916,0.244657,-0.193642
-0.112361,0.247728,-0.195554
-0.12216,0.256006,-0.201249
-0.124526,0.252872,-0.202283
-0.130571,0.252769,-0.20745
-0.139102,0.259087,-0.212464
-0.150572,0.2552,-0.213474
-0.155057,0.26098,-0.217947
-0.161639,0.264027,-0.223926
-0.166544,0.267033,-0.233559
-0.171502,0.269524,-0.232375
-0.176376,0.272813,-0.23907
-0.184396,0.278423,-0.242753
-0.187615,0.279669,-0.246157
-0.192563,0.28593,-0.25378
-0.195703,0.287106,-0.253189
-0.199404,0.286492,-0.26107
-0.203422,0.283968,-0.264646
-0.206795,0.285568,-0.269297
-0.212926,0.283729,-0.272319
-0.216301,0.279176,-0.278538
-0.212853,0.271138,-0.277491
-0.210123,0.266259,-0.287925
-0.20929,0.263981,-0.288697
-0.212789,0.253434,-0.293584
-0.205486,0.251576,-0.298758
-0.196633,0.243964,-0.304279
-0.198226,0.24176,-0.308378
-0.193256,0.237202,-0.311168
-0.188206,0.230137,-0.316963
-0.178158,0.229495,-0.320692
-0.171113,0.22906,-0.32642
-0.161146,0.231148,-0.330338
-0.152592,0.228723,-0.334694
-0.146782,0.22656,-0.341983
-0.13005,0.227764,-0.343075
-0.119574,0.226098,-0.345936
-0.104623,0.225254,-0.353093
-0.099342,0.227382,-0.358279
-0.085422,0.22405,-0.364541
-0.069514,0.219909,-0.373487
-0.058049,0.216322,-0.377002
-0.042994,0.2138,-0.381057
-0.033554,0.206525,-0.389096
-0.01871,0.206985,-0.392739
-0.010791,0.206027,-0.401527
0.001765,0.203785,-0.407477
0.006614,0.202281,-0.415251
0.018657,0.20104,-0.422359
0.026933,0.202905,-0.433397
0.030879,0.208276,-0.440224
0.034147,0.206997,-0.447831
0.03612,0.209879,-0.459661
0.036041,0.214616,-0.469358
0.039082,0.219788,-0.475162
0.036975,0.224315,-0.485039
0.028021,0.230701,-0.488143
0.019505,0.241909,-0.49741
0.011627,0.250579,-0.502491
-0.002579,0.265493,-0.50472
-0.018482,0.275613,-0.509214
-0.032184,0.291274,-0.509076
-0.047249,0.303034,-0.51197
-0.071415,0.314357,-0.514951
-0.089119,0.330213,-0.514385
-0.111088,0.343279,-0.516057
-0.12753,0.355332,-0.513104
-0.148617,0.367828,-0.511034
-0.168566,0.383698,-0.512964
-0.189178,0.390267,-0.511116
-0.206581,0.400742,-0.512138
-0.220384,0.402767,-0.514586
-0.236736,0.410933,-0.507905
-0.246292,0.413678,-0.511119
-0.257337,0.414086,-0.506182
-0.266647,0.41466,-0.50271
-0.272717,0.411008,-0.501548
-0.291285,0.410398,-0.494844
-0.299782,0.406834,-0.492618
-0.307143,0.397431,-0.487964
-0.312524,0.384838,-0.482649
-0.315739,0.376403,-0.475669
-0.324321,0.365556,-0.472605
-0.324057,0.352929,-0.467171
-0.320566,0.335122,-0.459151
-0.32244,0.31746,-0.450923
-0.32417,0.307707,-0.447141
-0.324065,0.291043,-0.439541
-0.318094,0.273357,-0.430484
-0.31518,0.255371,-0.423764
-0.313661,0.235363,-0.415336
-0.313842,0.21727,-0.407852
-0.311478,0.200234,-0.395981
-0.309029,0.177682,-0.388089
-0.300446,0.158822,-0.380327
-0.292002,0.139388,-0.368619
-0.28915,0.120889,-0.363053
-0.277837,0.101914,-0.345205
-0.271004,0.08147,-0.336881
-0.262117,0.061385,-0.327295
-0.255482,0.045104,-0.315735
-0.242309,0.025988,-0.3034
-0.231867,0.003751,-0.29411
-0.218689,-0.013235,-0.28532
-0.21743,-0.033616,-0.275667
-0.209622,-0.046413,-0.260308
-0.194067,-0.069141,-0.253612
-0.187103,-0.086512,-0.234137
-0.184362,-0.102369,-0.226109
-0.187989,-0.113368,-0.180386
-0.190434,-0.122146,-0.070159
-0.151408,-0.140826,-0.011484
-0.095592,-0.145026,-0.040279
-0.094388,-0.135246,-0.176468
-0.300489,-0.188315,-0.514391
-0.403018,-0.2354,-0.703505
-0.217077,-0.180735,-0.67568
-0.255042,-0.194454,-0.59723
-0.20908,-0.192708,-0.575195
-0.22621,-0.205822,-0.561634
-0.20368,-0.213307,-0.556427
-0.189672,-0.222722,-0.562489
-0.176375,-0.226235,-0.573914
-0.155097,-0.22428,-0.565188
-0.140415,-0.236361,-0.523128
-0.122647,-0.241517,-0.477554
-0.101924,-0.24768,-0.457101
-0.086965,-0.255974,-0.449993
-0.080128,-0.260034,-0.44656
-0.065872,-0.265993,-0.456558
-0.05372,-0.260246,-0.456134
-0.041798,-0.261351,-0.441115
-0.031404,-0.255267,-0.436138
-0.011681,-0.249912,-0.43679
0.004729,-0.247173,-0.430518
0.021536,-0.243703,-0.420639
0.038812,-0.234982,-0.408976
0.049094,-0.224933,-0.401099
0.056308,-0.219966,-0.401074
0.066977,-0.209187,-0.391918
0.075253,-0.207493,-0.375512
0.083635,-0.197773,-0.362928
0.099591,-0.187647,-0.362527
0.107715,-0.179631,-0.366628
0.121615,-0.171669,-0.368693
0.130259,-0.159435,-0.378086
0.146318,-0.156367,-0.38776
0.15625,-0.152758,-0.39448
0.16859,-0.143379,-0.400804
0.183604,-0.135082,-0.40556
0.194813,-0.131878,-0.409159
0.208708,-0.127609,-0.415756
0.220888,-0.122352,-0.417745
0.224892,-0.122972,-0.416851
0.236853,-0.112523,-0.420339
0.246837,-0.110914,-0.418572
0.255138,-0.11393,-0.418884
0.25657,-0.113484,-0.417337
0.258563,-0.113997,-0.412732
0.267101,-0.108682,-0.407989
0.271281,-0.114271,-0.404495
0.270919,-0.114973,-0.398664
0.270557,-0.11941,-0.39065
0.267874,-0.119388,-0.386645
0.264528,-0.122347,-0.380205
0.264446,-0.124221,-0.369553
0.256323,-0.126264,-0.358668
0.250911,-0.128515,-0.349097
0.244581,-0.128452,-0.331941
0.234836,-0.127611,-0.307624
0.219185,-0.134817,-0.263192
0.220103,-0.138739,-0.223012
0.210954,-0.138095,-0.195523
0.199565,-0.142308,-0.181554
0.184163,-0.14419,-0.166953
0.172438,-0.143595,-0.161071
0.162684,-0.14195,-0.162016
0.151279,-0.141771,-0.172266
0.14491,-0.143494,-0.176695
0.135537,-0.139847,-0.178781
0.123363,-0.148955,-0.179045
0.121138,-0.14673,-0.180623
0.115161,-0.14908,-0.188193
0.103366,-0.152479,-0.184762
0.095167,-0.155084,-0.181271
0.086544,-0.152761,-0.181656
0.083729,-0.159855,-0.172268
0.072549,-0.162379,-0.161701
0.065436,-0.16076,-0.145708
0.055773,-0.159989,-0.129408
0.04546,-0.159393,-0.128509
0.038116,-0.1636,-0.125287
0.030727,-0.159903,-0.115345
0.018845,-0.159545,-0.104943
0.007571,-0.155148,-0.103538
0.005881,-0.152867,-0.111057
-0.002418,-0.151592,-0.101535
-0.007603,-0.149301,-0.084281
-0.023186,-0.140731,-0.060707
-0.03358,-0.136428,-0.031507
-0.0475,-0.128314,-0.006728
-0.064409,-0.1195,0.016011
-0.07323,-0.112702,0.03944
-0.083925,-0.104247,0.053788
-0.089647,-0.096664,0.06386
-0.104533,-0.08603,0.077619
-0.11692,-0.075956,0.093973
-0.12527,-0.067486,0.113571
-0.136092,-0.058371,0.128035
-0.147441,-0.051144,0.139236
-0.159991,-0.045514,0.144999
-0.168723,-0.038284,0.145537
-0.183678,-0.030966,0.142726
-0.186409,-0.022435,0.145914
-0.200249,-0.012639,0.139158
-0.207424,-0.005902,0.136936
-0.220458,0.00077,0.131731
-0.230241,0.008073,0.129331
-0.237434,0.016964,0.122876
-0.248712,0.023941,0.116193
-0.258498,0.027447,0.111621
-0.266102,0.027134,0.101437
-0.277828,0.032423,0.095847
-0.289193,0.038435,0.083835
-0.299519,0.038157,0.080975
-0.306477,0.044369,0.072382
-0.313586,0.045753,0.065816
-0.324567,0.049239,0.060648
-0.330076,0.053494,0.054131
-0.33998,0.055201,0.043777
-0.341183,0.053927,0.039121
-0.347608,0.052575,0.035376
-0.353798,0.05104,0.030624
-0.355582,0.047881,0.027681
-0.35817,0.043579,0.022592
